SubjectID,StimID,Phase,svg_z,svg_obs,svg_null_mean,svg_null_std,n_transitions,n_relational,low_n,mean_salience_relational,mean_salience_nonrelational,n_relational_fixations,n_nonrelational_fixations,n_fixations,n_aoi,aoi_prop,mean_salience,enc_q1_accuracy,enc_q1_rt_ms,enc_q1_response,enc_q1_correct_key,enc_q1_question,enc_q2_accuracy,enc_q2_rt_ms,enc_q2_response,enc_q2_correct_key,enc_q2_question,enc_trial_index,enc_total_correct,dec_free_response,dec_rt_ms,dec_trial_index,dec_cue_question
Encode-Decode_Experiment-7-1,2412687,encoding,2.394665,0.615385,0.283,0.138802,13,8,False,0.109817,0.161219,20,5,28,25,0.8929,0.119326,1.0,5173.0,3.0,3.0,What is the human's body position?,1.0,5243.0,4.0,4.0,What is the dog biting onto in the scene?,1.0,2.0,,,,
Encode-Decode_Experiment-7-1,2370664,encoding,-0.520219,0.1,0.1659,0.126677,10,1,False,0.211297,0.144079,2,19,21,21,1.0,0.15048,1.0,3231.0,1.0,1.0,Where are the people located in the scene?,1.0,24878.0,4.0,4.0,How many donuts are in the scene?,2.0,2.0,,,,
Encode-Decode_Experiment-7-1,2348899,encoding,4.31179,0.65,0.19505,0.105513,20,13,False,0.145134,0.193594,27,4,31,31,1.0,0.151387,1.0,3589.0,4.0,4.0,What is the woman doing?,1.0,7519.0,1.0,1.0,Where is the woman located relative to the man? (from your perspective),3.0,2.0,,,,
Encode-Decode_Experiment-7-1,2374670,encoding,1.852983,0.52381,0.305809,0.117648,21,11,False,0.212396,0.21404,24,9,37,33,0.8919,0.238978,1.0,6005.0,1.0,1.0,What vehicle sprays water in the scene?,1.0,6995.0,3.0,3.0,Where is the man standing relative to the vehicle?,4.0,2.0,,,,
Encode-Decode_Experiment-7-1,2349475,encoding,1.169656,0.2,0.11145,0.075706,20,4,False,0.056883,0.057107,11,17,36,28,0.7778,0.074432,0.0,6764.0,4.0,1.0,What is the man doing to power the blender?,1.0,3692.0,3.0,3.0,Which part of the blender is the woman holding?,5.0,1.0,,,,
Encode-Decode_Experiment-7-1,2385851,encoding,-0.638776,0.086957,0.138304,0.080385,23,2,False,0.111291,0.165046,4,24,34,28,0.8235,0.19349,1.0,9372.0,3.0,3.0,Where are the men?,1.0,2584.0,2.0,2.0,What are the men doing with the suitcases?,6.0,2.0,,,,
Encode-Decode_Experiment-7-1,2345035,encoding,1.01678,0.344828,0.245655,0.097536,29,10,False,0.146821,0.256563,16,19,37,35,0.9459,0.201809,1.0,6958.0,3.0,3.0,What are the people doing with the football?,1.0,6198.0,2.0,2.0,Who runs toward the football in the scene?,7.0,2.0,,,,
Encode-Decode_Experiment-7-1,150472,encoding,-0.077499,0.285714,0.294667,0.115516,21,6,False,0.093122,0.094929,14,14,30,28,0.9333,0.096645,1.0,3567.0,2.0,2.0,Where is the pizza slice located?,1.0,2625.0,4.0,4.0,How many women are in the scene?,8.0,2.0,,,,
Encode-Decode_Experiment-7-1,2397102,encoding,3.435785,0.448276,0.171,0.080702,29,13,False,0.114213,0.169268,26,11,39,37,0.9487,0.127476,1.0,8817.0,3.0,3.0,What is the man holding besides the cake knife?,1.0,2618.0,1.0,1.0,What are the couple doing with the cake?,9.0,2.0,,,,
Encode-Decode_Experiment-7-1,2367132,encoding,3.768745,0.391304,0.111391,0.074272,23,9,False,0.114138,0.098785,19,12,36,31,0.8611,0.101701,0.0,7599.0,1.0,4.0,In which hand(s) are the men holding the controllers?,1.0,2988.0,2.0,2.0,How many men are playing in the scene?,10.0,1.0,,,,
Encode-Decode_Experiment-7-1,2347400,encoding,0.97244,0.181818,0.109182,0.074695,22,4,False,0.176684,0.222609,5,28,33,33,1.0,0.215651,1.0,2951.0,3.0,3.0,What are the men doing with the wine?,1.0,4305.0,1.0,1.0,What are the men sitting on in the scene?,11.0,2.0,,,,
Encode-Decode_Experiment-7-1,2356125,encoding,1.007354,0.259259,0.180519,0.078166,27,7,False,0.241659,0.224113,12,22,37,34,0.9189,0.227187,0.0,10610.0,2.0,1.0,Where is the luggage being moved to?,1.0,3552.0,2.0,2.0,How many uniformed staff are moving the luggage?,12.0,1.0,,,,
Encode-Decode_Experiment-7-1,2369373,encoding,0.175358,0.315789,0.295632,0.114953,19,6,False,0.212105,0.26037,12,18,30,30,1.0,0.241064,1.0,3545.0,3.0,3.0,What tool is the chef using?,0.0,4330.0,1.0,3.0,What is the appearance of the oven?,15.0,1.0,,,,
Encode-Decode_Experiment-7-1,2383555,encoding,-0.442478,0.111111,0.145704,0.078179,27,3,False,0.195271,0.13564,6,23,37,29,0.7838,0.133659,1.0,9011.0,4.0,4.0,What is the woman at the back doing in the boat?,1.0,2880.0,2.0,2.0,Who is holding the child in the boat?,16.0,2.0,,,,
Encode-Decode_Experiment-7-1,2347025,encoding,-0.098432,0.409091,0.421455,0.125606,22,9,False,0.093178,0.083781,29,13,43,42,0.9767,0.091408,1.0,2657.0,2.0,2.0,Who is holding the umbrella in the scene?,1.0,5040.0,1.0,1.0,Where is the baby in relation to the mother?,17.0,2.0,,,,
Encode-Decode_Experiment-7-1,2409918,encoding,2.332703,0.52381,0.27781,0.105457,21,11,False,0.207819,0.055452,26,10,36,36,1.0,0.165495,1.0,5909.0,4.0,4.0,Where are the elephants in the scene?,1.0,6423.0,2.0,2.0,What is the elephant on the right (from your perspective) doing with its trunk?,18.0,2.0,,,,
Encode-Decode_Experiment-7-1,2360001,encoding,-0.911728,0.043478,0.108783,0.071627,23,1,False,0.170316,0.344284,2,32,35,34,0.9714,0.326806,1.0,3920.0,4.0,4.0,Where are the men standing?,1.0,3484.0,4.0,4.0,What are the workers doing to the clock?,19.0,2.0,,,,
Encode-Decode_Experiment-7-1,2386442,encoding,4.627204,0.913043,0.364435,0.118562,23,21,False,0.148875,,35,0,35,35,1.0,0.148875,1.0,8992.0,3.0,3.0,What is the person on the right wearing?,1.0,4326.0,1.0,1.0,Who is brushing their teeth in the scene?,21.0,2.0,,,,
Encode-Decode_Experiment-7-1,2371471,encoding,1.642169,0.458333,0.288167,0.103623,24,11,False,0.349672,0.361598,17,11,28,28,1.0,0.354357,0.0,17075.0,3.0,2.0,What stunt is one motorcyclist performing?,0.0,8763.0,1.0,3.0,What is nearest to the motorcyclists?,25.0,0.0,,,,
Encode-Decode_Experiment-7-1,2362704,encoding,-0.106465,0.095238,0.103381,0.076484,21,2,False,0.259655,0.147438,4,21,27,25,0.9259,0.179319,1.0,2188.0,2.0,2.0,How many bears are in the scene?,1.0,3754.0,4.0,4.0,What are the bears doing with the pumpkins?,27.0,2.0,,,,
Encode-Decode_Experiment-7-1,2356991,encoding,2.089743,0.322581,0.160194,0.077707,31,10,False,0.18165,0.18174,19,17,38,36,0.9474,0.177353,1.0,8021.0,1.0,1.0,How is the player on the left (from your perspective) reaching the base?,1.0,7451.0,2.0,2.0,What is the current action of the gloved player on the base?,28.0,2.0,,,,
Encode-Decode_Experiment-7-1,2350974,encoding,3.075905,0.48,0.20372,0.089821,25,12,False,0.266069,0.243542,24,9,36,33,0.9167,0.264149,1.0,6452.0,4.0,4.0,Between which two objects is the child standing?,1.0,3744.0,1.0,1.0,What is the child up against?,29.0,2.0,,,,
Encode-Decode_Experiment-7-1,2411268,encoding,1.052812,0.473684,0.339105,0.127828,19,9,False,0.187291,0.16869,21,15,39,36,0.9231,0.173866,1.0,4445.0,4.0,4.0,Where is the fruit branch relative to the child?,1.0,3171.0,2.0,2.0,What is the child holding while picking fruit?,31.0,2.0,,,,
Encode-Decode_Experiment-7-1,2379478,encoding,2.251712,0.555556,0.282556,0.121241,18,10,False,0.445857,0.424898,19,4,28,23,0.8214,0.490175,1.0,4458.0,4.0,4.0,What is the position of the babies?,1.0,2669.0,2.0,2.0,How many babies are visible in the scene?,32.0,2.0,,,,
Encode-Decode_Experiment-7-1,2387122,encoding,3.041256,0.826087,0.448043,0.124305,23,19,False,0.13505,,29,0,32,29,0.9062,0.144433,1.0,3023.0,3.0,3.0,Where is the polar bear located in the scene?,1.0,8227.0,1.0,1.0,What is the polar bear doing next to the enclosure edge?,33.0,2.0,,,,
Encode-Decode_Experiment-7-1,2344622,encoding,0.2241,0.15,0.1316,0.082106,20,3,False,0.125455,0.194653,7,21,33,28,0.8485,0.198161,1.0,2659.0,4.0,4.0,What is the cat resting its head on?,1.0,3403.0,2.0,2.0,Where is the cat located?,35.0,2.0,,,,
Encode-Decode_Experiment-7-1,2408717,encoding,-1.245972,0.055556,0.181889,0.101393,18,1,False,0.152806,0.21164,2,18,28,20,0.7143,0.233471,1.0,2304.0,2.0,2.0,How many surfers are in the scene?,1.0,7033.0,3.0,3.0,What are the surfers doing with the surfboards?,36.0,2.0,,,,
Encode-Decode_Experiment-7-1,2394020,encoding,0.806677,0.611111,0.502056,0.135191,18,11,False,0.261467,0.1933,20,6,31,26,0.8387,0.247806,0.0,4028.0,4.0,2.0,What are the riders wearing on their heads?,0.0,4262.0,4.0,1.0,Where is the scene taking place?,37.0,0.0,,,,
Encode-Decode_Experiment-7-1,2410309,encoding,-0.09475,0.173913,0.183174,0.09774,23,4,False,0.300108,0.217847,7,20,29,27,0.931,0.25357,1.0,2954.0,4.0,4.0,How many laptops or electronic devices are visible?,0.0,3500.0,1.0,2.0,What is the baby touching?,40.0,1.0,,,,
Encode-Decode_Experiment-7-1,2385550,encoding,2.219305,0.5,0.286808,0.096063,26,13,False,0.163919,0.231254,28,10,40,38,0.95,0.202622,1.0,2464.0,4.0,4.0,Where are the tangerines in the scene?,1.0,4954.0,3.0,3.0,Which side of the frame is the boy on? (from your perspective),44.0,2.0,,,,
Encode-Decode_Experiment-7-1,2347400,decoding,-0.546558,0.076923,0.134231,0.104852,13,1,False,0.012748,0.137663,2,19,22,21,0.9545,0.124912,,,,,,,,,,,,,two men sat on a sofa smelling a glass of red wine,33698.0,1.0,Which description best matches the image?
Encode-Decode_Experiment-7-1,2410309,decoding,,0.0,0.0,0.0,2,0,False,,0.123614,0,15,15,15,1.0,0.123614,,,,,,,,,,,,,a woman on the left with a laptop on her lap and a baby on the right touching a laptop keyboard,28624.0,2.0,Which description best matches the image?
Encode-Decode_Experiment-7-1,2370664,decoding,,0.0,0.0,0.0,2,0,False,,0.155909,0,8,8,8,1.0,0.155909,,,,,,,,,,,,,3 people taking a bite out of a dounut,18695.0,3.0,Which description best matches the image?
Encode-Decode_Experiment-7-1,2345035,decoding,0.970251,0.384615,0.254538,0.134065,13,5,False,0.237734,0.329238,10,6,17,16,0.9412,0.257736,,,,,,,,,,,,,2 girls running after a football,10709.0,4.0,Which description best matches the image?
Encode-Decode_Experiment-7-1,2412687,decoding,,0.0,0.0,0.0,1,0,True,,0.053315,0,12,12,12,1.0,0.053315,,,,,,,,,,,,,a dog biting a red frizbe ad a man holding the grizbe on the right,29290.0,5.0,Which description best matches the image?
Encode-Decode_Experiment-7-1,2349475,decoding,-0.787935,0.0,0.1665,0.211312,4,0,False,,0.081452,0,9,9,9,1.0,0.081452,,,,,,,,,,,,,a woman on the left on a bike and a woman on the right holding the lid of the blender,25719.0,6.0,Which description best matches the image?
Encode-Decode_Experiment-7-1,2374670,decoding,-0.54155,0.4,0.5016,0.18761,10,4,False,0.122246,0.271376,6,7,13,13,1.0,0.202547,,,,,,,,,,,,,a red veirchle on the road and a man on the back of it,26485.0,7.0,Which description best matches the image?
Encode-Decode_Experiment-7-1,2371471,decoding,2.048495,0.888889,0.505333,0.187238,9,8,False,0.20635,,13,0,15,13,0.8667,0.179959,,,,,,,,,,,,,"2 men on stunt bikes with a man in front doing a hand stand, thry are both about to land on a dirt ramp",34403.0,8.0,Which description best matches the image?
Encode-Decode_Experiment-7-1,2348899,decoding,-0.033703,0.333333,0.343667,0.306601,3,1,False,0.091284,0.14136,2,9,11,11,1.0,0.132255,,,,,,,,,,,,,a man sat in the middle wearing a pink and white stripped tie and a woman to the right of him holdinbg the tie and 2 other men standing to the left of the man wearing the tie,48403.0,9.0,Which description best matches the image?
Encode-Decode_Experiment-7-1,2369373,decoding,1.57297,1.0,0.659,0.216787,6,6,False,0.209851,,11,0,11,11,1.0,0.209851,,,,,,,,,,,,,a man putting a pizza in a pizza oven in the shape of a stone man's mouth,46020.0,10.0,Which description best matches the image?
Encode-Decode_Experiment-7-1,2344622,decoding,-0.701265,0.5,0.659667,0.227684,6,3,False,0.107384,0.146976,4,6,11,10,0.9091,0.122471,,,,,,,,,,,,,a cat on the left lying on a blue blanket next to a key board and a persons hand over the left side of the keyboard,39146.0,11.0,Which description best matches the image?
Encode-Decode_Experiment-7-1,2385851,decoding,,0.0,0.0,0.0,4,0,False,,0.229958,0,6,6,6,1.0,0.229958,,,,,,,,,,,,,2 men walking with giant red suitcases on their backs under a bridge,40933.0,12.0,Which description best matches the image?
Encode-Decode_Experiment-7-1,2383555,decoding,-0.802276,0.0,0.16475,0.205353,4,0,False,,0.178851,0,6,6,6,1.0,0.178851,,,,,,,,,,,,,a woman at the back right of the boat paddeling and then a woman at the front wearing a hat and holding a baby also 1 other person was on the boat,48666.0,13.0,Which description best matches the image?
Encode-Decode_Experiment-7-1,2385550,decoding,0.00876,0.333333,0.330667,0.3044,3,1,False,0.156678,0.38845,3,2,5,5,1.0,0.249387,,,,,,,,,,,,,a young blonde boy on the left with a slice of tangerine in his mouth then a slightly older brunette girl on the right with a slice of tangerine in her mouth aswell,49032.0,14.0,Which description best matches the image?
Encode-Decode_Experiment-7-1,2362704,decoding,,0.0,0.0,0.0,4,0,False,,0.229298,0,10,12,10,0.8333,0.193286,,,,,,,,,,,,,2 black bears eating pumpkin,14393.0,15.0,Which description best matches the image?
Encode-Decode_Experiment-7-1,2347025,decoding,,1.0,1.0,0.0,2,2,False,0.143887,,3,0,4,3,0.75,0.1221,,,,,,,,,,,,,an older woman smiling wearing silver earrings and a baby on her back holding a pink umbrella with a pattern,54514.0,16.0,Which description best matches the image?
Encode-Decode_Experiment-7-1,2386442,decoding,,0.0,0.0,0.0,2,0,False,,0.066974,0,4,4,4,1.0,0.066974,,,,,,,,,,,,,"a woman on the left brushing her teeth with a white and green tooth brush, a young boy in the middle with a pink top brushing his teeth and a m?UNKNOWN?an on the right wearing a purple top also brushing his teeth",54175.0,17.0,Which description best matches the image?
Encode-Decode_Experiment-7-1,2360001,decoding,0.283532,0.25,0.203,0.165766,8,2,False,0.132484,0.107186,5,7,12,12,1.0,0.117727,,,,,,,,,,,,,a black and white photo with 4 men standing on scafolding holding up a big clock,22218.0,18.0,Which description best matches the image?
Encode-Decode_Experiment-7-1,2394020,decoding,0.008448,0.5,0.49775,0.266331,4,2,False,0.317567,0.348104,3,2,5,5,1.0,0.329782,,,,,,,,,,,,,2 men on a beach wearing cowboy hats riding white and brown patched horses,31459.0,19.0,Which description best matches the image?
Encode-Decode_Experiment-7-1,2397102,decoding,-0.023485,0.333333,0.340667,0.312253,3,1,False,0.068214,0.038113,2,2,4,4,1.0,0.053164,,,,,,,,,,,,,a woman on the left and a man on the right both cutting a cake with the same knife and the man has a beer in his other hand,32754.0,20.0,Which description best matches the image?
Encode-Decode_Experiment-7-1,2387122,decoding,-0.018125,0.6,0.6048,0.264834,5,3,False,0.137569,0.004589,6,1,9,7,0.7778,0.092788,,,,,,,,,,,,,a polar bear in a glass inclosure in water putting its paw up agains the glass and a blonde person with a camera and glasses on the other side of the glass,45133.0,21.0,Which description best matches the image?
Encode-Decode_Experiment-7-1,2379478,decoding,-0.838865,0.0,0.172,0.205039,4,0,False,,0.47059,0,5,5,5,1.0,0.47059,,,,,,,,,,,,,,20090.0,22.0,Which description best matches the image?
Encode-Decode_Experiment-7-1,2408717,decoding,,0.0,0.0,0.0,2,0,False,,0.095975,0,9,10,9,0.9,0.098073,,,,,,,,,,,,,4 women about to enter the sea all holding surfboards the 2 women on the right had green surfboards,29424.0,23.0,Which description best matches the image?
Encode-Decode_Experiment-7-1,2409918,decoding,1.888746,0.8,0.3402,0.243442,5,4,False,0.090254,0.108744,5,2,7,7,1.0,0.095537,,,,,,,,,,,,,2 elephants with men on thier backs the elephant on the right was eating a green branch both elephants are in water,68377.0,24.0,Which description best matches the image?
Encode-Decode_Experiment-7-1,150472,decoding,,,,,0,0,True,,,0,0,1,1,1.0,0.243138,,,,,,,,,,,,,a slice of pizza on a paper plate and 2 women with dark hair smiling,29683.0,25.0,Which description best matches the image?
Encode-Decode_Experiment-7-1,2350974,decoding,0.012148,0.5,0.49625,0.308704,4,2,False,0.111557,0.207421,7,3,10,10,1.0,0.140316,,,,,,,,,,,,,a,31058.0,26.0,Which description best matches the image?
Encode-Decode_Experiment-7-1,2356125,decoding,-0.656677,0.0,0.158667,0.24162,3,0,False,,0.111202,0,7,7,7,1.0,0.111202,,,,,,,,,,,,,,8730.0,27.0,Which description best matches the image?
Encode-Decode_Experiment-7-1,2411268,decoding,,0.0,0.0,0.0,5,0,False,,0.068153,0,10,10,10,1.0,0.068153,,,,,,,,,,,,,"a little girl holding a red bag in her left hand grabbing green apples from a branch above her head, shw was wearing a pink dress and had blonde hair",59774.0,28.0,Which description best matches the image?
Encode-Decode_Experiment-7-1,2367132,decoding,,0.0,0.0,0.0,3,0,False,,0.046373,0,11,11,11,1.0,0.046373,,,,,,,,,,,,,2 men holding a video game consalt in both hands which is white standing up and playing a game and bending them is a blonde girl sat on the sofa,46137.0,29.0,Which description best matches the image?
Encode-Decode_Experiment-7-1,2356991,decoding,,,,,0,0,True,,0.079056,0,9,10,9,0.9,0.077921,,,,,,,,,,,,,a man on the left diving face first onto the floor and the man ob the right is waering read cap and a red and white striped outflit waiting to catcvh the ball,70365.0,30.0,Which description best matches the image?
