SubjectID,StimID,Phase,svg_z_all,svg_obs_all,svg_null_mean_all,svg_null_std_all,svg_z_inter,svg_obs_inter,svg_null_mean_inter,svg_null_std_inter,n_transitions,n_relational_all,n_relational_inter,low_n,lcs_enc_dec,lcs_len_enc_dec,tau_enc_dec,tau_p_enc_dec,n_shared_enc_dec,n_fixations,n_aoi,aoi_prop,mean_salience,enc_accuracy,enc_rt_ms,enc_response,enc_correct_key,enc_trial_index,q2_accuracy,q2_rt_ms,q2_confidence,q2_present_order,q1_accuracy,q1_rt_ms,q1_confidence,q1_present_order,dec_total_correct,dec_trial_index
Encode-Decode_Experiment-1-1,2386442,encoding,1.38455,0.75,0.4675,0.204037,1.471047,0.75,0.449,0.204616,8,6,6,False,,,,,,17,17,1.0,0.12762,0.0,14150.0,4.0,1.0,1.0,,,,,,,,,,
Encode-Decode_Experiment-1-1,2367132,encoding,0.727903,0.428571,0.277429,0.207642,1.040942,0.285714,0.132286,0.147394,7,3,2,False,,,,,,11,10,0.9091,0.088971,1.0,6795.0,3.0,3.0,2.0,,,,,,,,,,
Encode-Decode_Experiment-1-1,2347025,encoding,0.712363,0.583333,0.465583,0.165295,1.581254,0.416667,0.209667,0.130909,12,7,5,False,,,,,,18,16,0.8889,0.111727,0.0,7559.0,2.0,3.0,3.0,,,,,,,,,,
Encode-Decode_Experiment-1-1,2369373,encoding,1.593717,0.666667,0.412667,0.159376,0.899153,0.25,0.146583,0.115016,12,8,3,False,,,,,,17,16,0.9412,0.226377,0.0,6860.0,3.0,2.0,4.0,,,,,,,,,,
Encode-Decode_Experiment-1-1,2394020,encoding,-0.128404,0.5,0.5233,0.181458,0.765775,0.3,0.1917,0.141425,10,5,3,False,,,,,,13,12,0.9231,0.286664,1.0,4830.0,1.0,1.0,5.0,,,,,,,,,,
Encode-Decode_Experiment-1-1,2345035,encoding,-0.650724,0.1875,0.276437,0.136675,-0.425851,0.125,0.171687,0.109633,16,3,2,False,,,,,,20,19,0.95,0.166657,1.0,6985.0,4.0,4.0,6.0,,,,,,,,,,
Encode-Decode_Experiment-1-1,2408717,encoding,0.336695,0.4,0.3373,0.186222,0.126285,0.3,0.2775,0.178168,10,4,3,False,,,,,,15,14,0.9333,0.332838,1.0,3254.0,4.0,4.0,7.0,,,,,,,,,,
Encode-Decode_Experiment-1-1,2344622,encoding,0.339839,0.222222,0.178333,0.129146,0.057354,0.111111,0.104444,0.116237,9,2,1,False,,,,,,17,15,0.8824,0.218495,1.0,3160.0,3.0,3.0,8.0,,,,,,,,,,
Encode-Decode_Experiment-1-1,2356991,encoding,0.621953,0.307692,0.216,0.147426,-0.333434,0.076923,0.111308,0.103123,13,4,1,False,,,,,,19,17,0.8947,0.107174,1.0,4630.0,2.0,2.0,9.0,,,,,,,,,,
Encode-Decode_Experiment-1-1,2356125,encoding,0.619282,0.444444,0.334222,0.177984,0.452553,0.111111,0.069,0.093052,9,4,1,False,,,,,,14,14,1.0,0.178602,1.0,4352.0,3.0,3.0,10.0,,,,,,,,,,
Encode-Decode_Experiment-1-1,150472,encoding,1.499538,0.888889,0.601889,0.191392,1.459851,0.555556,0.294667,0.178709,9,8,5,False,,,,,,15,15,1.0,0.120658,1.0,3349.0,3.0,3.0,11.0,,,,,,,,,,
Encode-Decode_Experiment-1-1,2348899,encoding,3.083425,0.75,0.284833,0.15086,3.416827,0.75,0.247,0.147213,12,9,9,False,,,,,,18,18,1.0,0.254501,1.0,5884.0,4.0,4.0,12.0,,,,,,,,,,
Encode-Decode_Experiment-1-1,2349475,encoding,0.670064,0.2,0.135467,0.096309,0.621854,0.133333,0.083533,0.080083,15,3,2,False,,,,,,20,20,1.0,0.063677,1.0,14244.0,4.0,4.0,13.0,,,,,,,,,,
Encode-Decode_Experiment-1-1,2347400,encoding,0.018313,0.2,0.1976,0.131051,-0.036887,0.2,0.2049,0.132838,10,2,2,False,,,,,,16,15,0.9375,0.267378,1.0,2983.0,4.0,4.0,14.0,,,,,,,,,,
Encode-Decode_Experiment-1-1,2411268,encoding,0.905196,0.625,0.452125,0.190981,0.85836,0.625,0.46575,0.185528,8,5,5,False,,,,,,14,14,1.0,0.206753,1.0,4092.0,4.0,4.0,15.0,,,,,,,,,,
Encode-Decode_Experiment-1-1,2374670,encoding,-0.370764,0.166667,0.2195,0.142499,-0.143824,0.166667,0.185917,0.133844,12,2,2,False,,,,,,15,15,1.0,0.223283,1.0,2124.0,1.0,1.0,16.0,,,,,,,,,,
Encode-Decode_Experiment-1-1,2385550,encoding,-0.484379,0.125,0.19725,0.14916,,0.0,0.0,0.0,8,1,0,False,,,,,,14,12,0.8571,0.200555,1.0,4779.0,4.0,4.0,17.0,,,,,,,,,,
Encode-Decode_Experiment-1-1,2350974,encoding,0.722951,0.5,0.340833,0.220162,0.822062,0.5,0.3235,0.214704,6,3,3,False,,,,,,16,11,0.6875,0.299342,0.0,5576.0,1.0,4.0,18.0,,,,,,,,,,
Encode-Decode_Experiment-1-1,2387122,encoding,1.098071,0.9,0.7399,0.145801,-0.70536,0.2,0.3207,0.171118,10,9,2,False,,,,,,17,15,0.8824,0.136978,1.0,4692.0,2.0,2.0,19.0,,,,,,,,,,
Encode-Decode_Experiment-1-1,2385851,encoding,-0.850753,0.066667,0.149333,0.097169,-0.474087,0.066667,0.1082,0.087607,15,1,1,False,,,,,,18,18,1.0,0.181685,0.0,3092.0,2.0,1.0,20.0,,,,,,,,,,
Encode-Decode_Experiment-1-1,2383555,encoding,0.043004,0.1,0.0955,0.104641,0.704921,0.1,0.0471,0.075044,10,1,1,False,,,,,,12,12,1.0,0.180646,1.0,5101.0,3.0,3.0,21.0,,,,,,,,,,
Encode-Decode_Experiment-1-1,2412687,encoding,,0.0,0.0,0.0,,0.0,0.0,0.0,1,0,0,True,,,,,,12,9,0.75,0.130188,1.0,11981.0,3.0,3.0,22.0,,,,,,,,,,
Encode-Decode_Experiment-1-1,2409918,encoding,1.911907,0.875,0.4985,0.196924,1.090223,0.5,0.298875,0.184481,8,7,4,False,,,,,,17,14,0.8235,0.145807,1.0,1882.0,1.0,1.0,23.0,,,,,,,,,,
Encode-Decode_Experiment-1-1,2397102,encoding,1.197418,0.461538,0.291308,0.142165,1.747844,0.384615,0.167615,0.124153,13,6,5,False,,,,,,17,17,1.0,0.12376,1.0,4107.0,3.0,3.0,24.0,,,,,,,,,,
Encode-Decode_Experiment-1-1,2360001,encoding,0.816706,0.111111,0.047778,0.077547,,0.0,0.0,0.0,9,1,0,False,,,,,,13,13,1.0,0.326879,1.0,4779.0,2.0,2.0,25.0,,,,,,,,,,
Encode-Decode_Experiment-1-1,2410309,encoding,0.991661,0.4,0.267933,0.133177,1.298271,0.2,0.089933,0.084779,15,6,3,False,,,,,,21,21,1.0,0.235682,1.0,4952.0,2.0,2.0,26.0,,,,,,,,,,
Encode-Decode_Experiment-1-1,2370664,encoding,1.33144,0.545455,0.325455,0.165235,2.611185,0.454545,0.144273,0.118825,11,6,5,False,,,,,,16,16,1.0,0.167246,1.0,2518.0,1.0,1.0,27.0,,,,,,,,,,
Encode-Decode_Experiment-1-1,2379478,encoding,1.591397,0.666667,0.389333,0.17427,1.592012,0.444444,0.200556,0.153195,9,6,4,False,,,,,,13,13,1.0,0.404022,1.0,2037.0,2.0,2.0,28.0,,,,,,,,,,
Encode-Decode_Experiment-1-1,2371471,encoding,1.392861,0.3,0.1339,0.119251,,0.0,0.0,0.0,10,3,0,False,,,,,,16,16,1.0,0.254037,1.0,6993.0,3.0,3.0,29.0,,,,,,,,,,
Encode-Decode_Experiment-1-1,2362704,encoding,-1.340194,0.0,0.137692,0.102741,-0.777795,0.0,0.049846,0.064086,13,0,0,False,,,,,,18,18,1.0,0.14711,1.0,2589.0,1.0,1.0,30.0,,,,,,,,,,
Encode-Decode_Experiment-1-1,2356125,decoding,,0.0,0.0,0.0,,0.0,0.0,0.0,3,0,0,False,0.666667,2.0,1.0,1.0,2.0,15,14,0.9333,0.048053,,,,,,1.0,3802.0,2.0,2.0,1.0,3702.0,4.0,1.0,2.0,1.0
Encode-Decode_Experiment-1-1,2347400,decoding,,0.0,0.0,0.0,,0.0,0.0,0.0,3,0,0,False,0.25,1.0,-1.0,1.0,2.0,11,11,1.0,0.072117,,,,,,1.0,3607.0,2.0,1.0,1.0,2954.0,4.0,2.0,2.0,2.0
Encode-Decode_Experiment-1-1,2367132,decoding,,0.0,0.0,0.0,,0.0,0.0,0.0,1,0,0,True,1.0,2.0,1.0,1.0,2.0,9,9,1.0,0.049972,,,,,,0.0,2633.0,1.0,2.0,1.0,2274.0,1.0,1.0,1.0,3.0
Encode-Decode_Experiment-1-1,2371471,decoding,,1.0,1.0,0.0,,1.0,1.0,0.0,1,1,1,True,0.5,1.0,,,1.0,7,7,1.0,0.051522,,,,,,1.0,5619.0,2.0,2.0,0.0,3950.0,4.0,1.0,1.0,4.0
Encode-Decode_Experiment-1-1,2411268,decoding,,0.0,0.0,0.0,,0.0,0.0,0.0,4,0,0,False,0.5,1.0,,,1.0,12,12,1.0,0.082449,,,,,,1.0,6793.0,4.0,1.0,0.0,5760.0,4.0,2.0,1.0,5.0
Encode-Decode_Experiment-1-1,2385550,decoding,1.805294,0.75,0.32375,0.236111,,0.0,0.0,0.0,4,3,0,False,0.25,1.0,,,1.0,7,6,0.8571,0.305564,,,,,,0.0,10753.0,2.0,1.0,1.0,3136.0,4.0,2.0,1.0,6.0
Encode-Decode_Experiment-1-1,2397102,decoding,,,,,,,,,0,0,0,True,1.0,1.0,,,1.0,9,9,1.0,0.04892,,,,,,1.0,7414.0,4.0,1.0,1.0,2062.0,4.0,2.0,2.0,7.0
Encode-Decode_Experiment-1-1,2386442,decoding,,0.0,0.0,0.0,,0.0,0.0,0.0,1,0,0,True,1.0,2.0,1.0,1.0,2.0,5,5,1.0,0.03885,,,,,,0.0,8797.0,1.0,1.0,0.0,8431.0,3.0,2.0,0.0,8.0
Encode-Decode_Experiment-1-1,2350974,decoding,1.866232,0.75,0.391875,0.191897,1.808383,0.75,0.39825,0.194511,8,6,6,False,0.25,1.0,,,1.0,13,13,1.0,0.156467,,,,,,0.0,3457.0,1.0,2.0,1.0,5185.0,1.0,1.0,1.0,9.0
Encode-Decode_Experiment-1-1,2383555,decoding,1.294222,0.333333,0.136167,0.152344,0.90401,0.166667,0.065333,0.112093,6,2,1,False,0.166667,1.0,-1.0,1.0,2.0,12,12,1.0,0.199914,,,,,,0.0,7568.0,1.0,2.0,0.0,4472.0,1.0,1.0,0.0,10.0
Encode-Decode_Experiment-1-1,2356991,decoding,,,,,,,,,0,0,0,True,1.0,1.0,,,1.0,10,10,1.0,0.004443,,,,,,1.0,7491.0,4.0,1.0,1.0,4085.0,4.0,2.0,2.0,11.0
Encode-Decode_Experiment-1-1,2387122,decoding,-0.440099,0.5,0.6635,0.371507,,0.0,0.0,0.0,2,1,0,False,0.666667,2.0,0.333333,1.0,3.0,12,11,0.9167,0.220736,,,,,,1.0,4136.0,4.0,1.0,1.0,3053.0,4.0,2.0,2.0,12.0
Encode-Decode_Experiment-1-1,2344622,decoding,,1.0,1.0,0.0,,0.0,0.0,0.0,1,1,0,True,1.0,2.0,1.0,1.0,2.0,10,10,1.0,0.142216,,,,,,1.0,2688.0,4.0,2.0,1.0,4268.0,4.0,1.0,2.0,13.0
Encode-Decode_Experiment-1-1,2360001,decoding,,0.0,0.0,0.0,,0.0,0.0,0.0,3,0,0,False,0.5,2.0,1.0,1.0,2.0,7,6,0.8571,0.15661,,,,,,1.0,2144.0,4.0,1.0,1.0,10428.0,2.0,2.0,2.0,14.0
Encode-Decode_Experiment-1-1,2349475,decoding,,,,,,,,,0,0,0,True,1.0,1.0,,,1.0,6,6,1.0,0.066383,,,,,,1.0,4647.0,4.0,2.0,1.0,6142.0,2.0,1.0,2.0,15.0
Encode-Decode_Experiment-1-1,2374670,decoding,,1.0,1.0,0.0,,1.0,1.0,0.0,3,3,3,False,0.666667,2.0,1.0,1.0,2.0,11,11,1.0,0.196646,,,,,,1.0,3305.0,4.0,2.0,0.0,5901.0,4.0,1.0,1.0,16.0
Encode-Decode_Experiment-1-1,150472,decoding,,0.0,0.0,0.0,,0.0,0.0,0.0,6,0,0,False,0.333333,1.0,-1.0,1.0,2.0,13,13,1.0,0.119899,,,,,,1.0,3010.0,4.0,1.0,1.0,3485.0,4.0,2.0,2.0,17.0
Encode-Decode_Experiment-1-1,2412687,decoding,,0.0,0.0,0.0,,0.0,0.0,0.0,2,0,0,False,1.0,2.0,1.0,1.0,2.0,10,10,1.0,0.03754,,,,,,1.0,12087.0,4.0,1.0,1.0,2412.0,4.0,2.0,2.0,18.0
Encode-Decode_Experiment-1-1,2369373,decoding,-1.085162,0.4,0.6558,0.235725,,0.0,0.0,0.0,5,2,0,False,0.666667,2.0,0.333333,1.0,3.0,11,11,1.0,0.133884,,,,,,0.0,4787.0,1.0,1.0,0.0,14437.0,3.0,2.0,0.0,19.0
Encode-Decode_Experiment-1-1,2347025,decoding,,1.0,1.0,0.0,,1.0,1.0,0.0,1,1,1,True,0.5,1.0,-1.0,1.0,2.0,12,12,1.0,0.108585,,,,,,1.0,3580.0,4.0,1.0,1.0,3050.0,4.0,2.0,2.0,20.0
Encode-Decode_Experiment-1-1,2370664,decoding,,1.0,1.0,0.0,,0.0,0.0,0.0,3,3,0,False,0.666667,2.0,1.0,1.0,2.0,13,13,1.0,0.113094,,,,,,0.0,3334.0,2.0,2.0,0.0,5174.0,1.0,1.0,0.0,21.0
Encode-Decode_Experiment-1-1,2410309,decoding,,0.0,0.0,0.0,,0.0,0.0,0.0,2,0,0,False,1.0,2.0,1.0,1.0,2.0,21,21,1.0,0.183814,,,,,,1.0,3168.0,4.0,1.0,1.0,3822.0,4.0,2.0,2.0,22.0
Encode-Decode_Experiment-1-1,2394020,decoding,0.354202,0.75,0.65575,0.266091,-0.350771,0.25,0.345,0.270832,4,3,1,False,1.0,3.0,1.0,0.333333,3.0,9,8,0.8889,0.192867,,,,,,1.0,3002.0,4.0,2.0,1.0,6284.0,4.0,1.0,2.0,23.0
Encode-Decode_Experiment-1-1,2348899,decoding,2.369161,0.769231,0.392538,0.158998,3.938627,0.538462,0.125,0.104976,13,10,7,False,0.5,3.0,1.0,0.333333,3.0,17,17,1.0,0.111402,,,,,,1.0,5598.0,4.0,1.0,1.0,3065.0,4.0,2.0,2.0,24.0
Encode-Decode_Experiment-1-1,2362704,decoding,-0.589359,0.0,0.034917,0.059245,-0.634966,0.0,0.036917,0.05814,12,0,0,False,0.25,2.0,-0.333333,1.0,3.0,17,17,1.0,0.121488,,,,,,1.0,3153.0,4.0,2.0,1.0,2183.0,4.0,1.0,2.0,25.0
Encode-Decode_Experiment-1-1,2409918,decoding,-0.609254,0.5,0.6635,0.268361,-0.306485,0.25,0.33075,0.263471,4,2,1,False,0.333333,1.0,-1.0,1.0,2.0,13,13,1.0,0.090043,,,,,,1.0,2724.0,4.0,1.0,1.0,7427.0,3.0,2.0,2.0,26.0
Encode-Decode_Experiment-1-1,2408717,decoding,-1.02598,0.285714,0.498714,0.207606,-1.088019,0.0,0.178,0.1636,7,2,0,False,0.25,1.0,,,1.0,13,13,1.0,0.094577,,,,,,1.0,3669.0,4.0,2.0,0.0,3251.0,4.0,1.0,1.0,27.0
Encode-Decode_Experiment-1-1,2385851,decoding,-0.859908,0.0,0.09975,0.116001,,0.0,0.0,0.0,8,0,0,False,0.6,3.0,1.0,0.333333,3.0,10,10,1.0,0.154989,,,,,,0.0,7410.0,2.0,1.0,1.0,2839.0,4.0,2.0,1.0,28.0
Encode-Decode_Experiment-1-1,2379478,decoding,-1.042553,0.333333,0.66,0.313333,0.017059,0.333333,0.328,0.312649,3,1,1,False,1.0,3.0,1.0,0.333333,3.0,9,9,1.0,0.730578,,,,,,1.0,3829.0,1.0,2.0,0.0,7423.0,1.0,1.0,1.0,29.0
Encode-Decode_Experiment-1-1,2345035,decoding,,0.0,0.0,0.0,,0.0,0.0,0.0,3,0,0,False,0.5,2.0,0.333333,1.0,3.0,9,9,1.0,0.210994,,,,,,1.0,7172.0,4.0,1.0,1.0,3050.0,4.0,2.0,2.0,30.0
