SubjectID,StimID,Phase,svg_z_all,svg_obs_all,svg_null_mean_all,svg_null_std_all,svg_z_inter,svg_obs_inter,svg_null_mean_inter,svg_null_std_inter,n_transitions,n_relational_all,n_relational_inter,low_n,lcs_enc_dec,lcs_len_enc_dec,tau_enc_dec,tau_p_enc_dec,n_shared_enc_dec,n_fixations,n_aoi,aoi_prop,mean_salience,enc_q1_accuracy,enc_q1_rt_ms,enc_q1_trial_index,enc_q2_accuracy,enc_q2_rt_ms,enc_q2_trial_index,dec_rt_ms,dec_trial_index,writing_length
Encode-Decode_Experiment-1-1,2371471,encoding,2.189755,0.6,0.36176,0.108798,1.881612,0.28,0.14,0.074404,25,15,7,False,,,,,,34,34,1.0,0.32853,1.0,7851.0,1.0,1.0,12421.0,18.0,,,
Encode-Decode_Experiment-1-1,2387122,encoding,-0.323269,0.347826,0.386478,0.119567,-2.151738,0.043478,0.279739,0.1098,23,8,1,False,,,,,,33,29,0.8788,0.308556,1.0,7463.0,2.0,1.0,5668.0,19.0,,,
Encode-Decode_Experiment-1-1,2374670,encoding,-0.450497,0.3,0.3596,0.132298,-0.29457,0.25,0.28525,0.119666,20,6,5,False,,,,,,39,36,0.9231,0.212175,0.0,6044.0,3.0,1.0,9310.0,36.0,,,
Encode-Decode_Experiment-1-1,2356991,encoding,2.042876,0.321429,0.152393,0.082744,1.93149,0.25,0.114321,0.070246,28,9,7,False,,,,,,37,33,0.8919,0.161358,1.0,10953.0,4.0,1.0,6687.0,14.0,,,
Encode-Decode_Experiment-1-1,2412687,encoding,2.684105,0.666667,0.296667,0.137849,3.839132,0.666667,0.197933,0.122094,15,10,10,False,,,,,,29,26,0.8966,0.127853,1.0,9147.0,5.0,1.0,5930.0,15.0,,,
Encode-Decode_Experiment-1-1,2360001,encoding,-0.759455,0.041667,0.090167,0.063862,-0.986798,0.0,0.043458,0.04404,24,1,0,False,,,,,,38,37,0.9737,0.279301,1.0,11249.0,6.0,1.0,4944.0,30.0,,,
Encode-Decode_Experiment-1-1,2397102,encoding,2.442422,0.571429,0.29019,0.115147,1.205847,0.285714,0.159476,0.104688,21,12,6,False,,,,,,35,35,1.0,0.145785,1.0,4439.0,7.0,1.0,4350.0,29.0,,,
Encode-Decode_Experiment-1-1,150472,encoding,1.524928,0.4,0.2356,0.107808,,0.0,0.0,0.0,20,8,0,False,,,,,,30,30,1.0,0.08805,1.0,3118.0,8.0,1.0,3643.0,44.0,,,
Encode-Decode_Experiment-1-1,2379478,encoding,3.123572,0.866667,0.396267,0.150597,3.150713,0.733333,0.3308,0.127759,15,13,11,False,,,,,,35,34,0.9714,0.406243,1.0,4689.0,9.0,1.0,2082.0,52.0,,,
Encode-Decode_Experiment-1-1,2369373,encoding,1.282086,0.64,0.48856,0.11812,-0.578715,0.16,0.21812,0.100429,25,16,4,False,,,,,,40,40,1.0,0.232915,1.0,6485.0,10.0,1.0,4938.0,34.0,,,
Encode-Decode_Experiment-1-1,2347025,encoding,0.117342,0.473684,0.457579,0.13725,-1.28591,0.105263,0.248158,0.111123,19,9,2,False,,,,,,39,37,0.9487,0.101181,1.0,4866.0,11.0,1.0,5607.0,21.0,,,
Encode-Decode_Experiment-1-1,2349475,encoding,1.407713,0.333333,0.197125,0.096759,1.576306,0.25,0.130333,0.075916,24,8,6,False,,,,,,37,36,0.973,0.070533,1.0,4998.0,12.0,0.0,14841.0,28.0,,,
Encode-Decode_Experiment-1-1,2394020,encoding,1.766696,0.692308,0.398154,0.166499,0.022806,0.076923,0.075077,0.080949,13,9,1,False,,,,,,33,27,0.8182,0.211957,1.0,11365.0,13.0,1.0,3777.0,58.0,,,
Encode-Decode_Experiment-1-1,2362704,encoding,-0.742402,0.045455,0.099182,0.07237,-0.997488,0.0,0.055591,0.055731,22,1,0,False,,,,,,28,26,0.9286,0.175742,1.0,4644.0,16.0,1.0,3040.0,40.0,,,
Encode-Decode_Experiment-1-1,2385550,encoding,2.182082,0.391304,0.203956,0.085857,0.702347,0.130435,0.086217,0.062957,23,9,3,False,,,,,,34,32,0.9412,0.305476,1.0,6081.0,17.0,1.0,4534.0,41.0,,,
Encode-Decode_Experiment-1-1,2410309,encoding,1.990765,0.36,0.18132,0.089754,0.730909,0.16,0.10748,0.071856,25,9,4,False,,,,,,36,34,0.9444,0.285861,1.0,3857.0,20.0,1.0,3350.0,53.0,,,
Encode-Decode_Experiment-1-1,2356125,encoding,1.74309,0.36,0.20824,0.087064,1.09801,0.16,0.09292,0.061092,25,9,4,False,,,,,,34,33,0.9706,0.284523,1.0,3847.0,22.0,1.0,5075.0,25.0,,,
Encode-Decode_Experiment-1-1,2348899,encoding,4.695271,0.75,0.2478,0.106959,4.992679,0.75,0.22145,0.105865,20,15,15,False,,,,,,32,32,1.0,0.205595,1.0,5228.0,23.0,1.0,9034.0,60.0,,,
Encode-Decode_Experiment-1-1,2350974,encoding,4.514891,0.736842,0.244842,0.108973,5.032661,0.736842,0.215316,0.103628,19,14,14,False,,,,,,38,31,0.8158,0.278012,1.0,5186.0,24.0,1.0,8762.0,59.0,,,
Encode-Decode_Experiment-1-1,2383555,encoding,1.242228,0.36,0.23788,0.098307,0.236224,0.2,0.179,0.088899,25,9,5,False,,,,,,34,33,0.9706,0.165578,0.0,7759.0,26.0,1.0,4709.0,39.0,,,
Encode-Decode_Experiment-1-1,2409918,encoding,2.316643,0.473684,0.221474,0.108869,2.147798,0.315789,0.131632,0.085743,19,9,6,False,,,,,,35,35,1.0,0.149448,1.0,9968.0,27.0,1.0,6438.0,50.0,,,
Encode-Decode_Experiment-1-1,2347400,encoding,0.201341,0.222222,0.201167,0.104577,0.200143,0.222222,0.201056,0.105758,18,4,4,False,,,,,,30,27,0.9,0.241136,1.0,3779.0,31.0,1.0,2865.0,49.0,,,
Encode-Decode_Experiment-1-1,2408717,encoding,1.537246,0.363636,0.213909,0.0974,1.346318,0.272727,0.156136,0.0866,22,8,6,False,,,,,,37,32,0.8649,0.207272,1.0,2675.0,32.0,1.0,4633.0,47.0,,,
Encode-Decode_Experiment-1-1,2386442,encoding,2.891137,0.769231,0.337462,0.149342,3.235214,0.692308,0.241308,0.139403,13,10,9,False,,,,,,37,36,0.973,0.134292,1.0,6336.0,33.0,1.0,6401.0,54.0,,,
Encode-Decode_Experiment-1-1,2385851,encoding,0.248483,0.12,0.1042,0.063586,1.028884,0.12,0.06544,0.053028,25,3,3,False,,,,,,31,28,0.9032,0.15682,1.0,6572.0,35.0,1.0,3877.0,51.0,,,
Encode-Decode_Experiment-1-1,2344622,encoding,-0.001997,0.333333,0.333667,0.166958,-1.048945,0.0,0.101,0.096287,12,4,0,False,,,,,,24,19,0.7917,0.254556,1.0,3713.0,37.0,1.0,8759.0,48.0,,,
Encode-Decode_Experiment-1-1,2411268,encoding,2.790374,0.6,0.28195,0.113981,3.413571,0.6,0.2396,0.105579,20,12,12,False,,,,,,32,31,0.9688,0.234453,0.0,9988.0,38.0,1.0,7151.0,56.0,,,
Encode-Decode_Experiment-1-1,2345035,encoding,-0.576252,0.25,0.310286,0.104617,-0.268452,0.178571,0.202143,0.087805,28,7,5,False,,,,,,41,36,0.878,0.23046,1.0,6065.0,42.0,1.0,5287.0,43.0,,,
Encode-Decode_Experiment-1-1,2370664,encoding,3.111753,0.555556,0.209389,0.111245,5.606241,0.555556,0.106389,0.080119,18,10,10,False,,,,,,40,40,1.0,0.147073,1.0,3329.0,45.0,1.0,3201.0,57.0,,,
Encode-Decode_Experiment-1-1,2367132,encoding,2.52208,0.380952,0.148952,0.091988,2.350202,0.238095,0.076048,0.068951,21,8,5,False,,,,,,37,36,0.973,0.103802,1.0,4443.0,46.0,1.0,3240.0,55.0,,,
Encode-Decode_Experiment-1-1,2362704,decoding,,0.0,0.0,0.0,,0.0,0.0,0.0,7,0,0,False,1.0,2.0,1.0,1.0,2.0,19,15,0.7895,0.088457,,,,,,,55163.0,1.0,51.0
Encode-Decode_Experiment-1-1,2367132,decoding,0.285135,0.75,0.677,0.25602,0.692949,0.5,0.32,0.25976,4,3,2,False,0.666667,2.0,0.333333,1.0,3.0,10,10,1.0,0.060864,,,,,,,63967.0,2.0,92.0
Encode-Decode_Experiment-1-1,2412687,decoding,,0.0,0.0,0.0,,0.0,0.0,0.0,4,0,0,False,1.0,2.0,1.0,1.0,2.0,14,12,0.8571,0.065487,,,,,,,35594.0,3.0,59.0
Encode-Decode_Experiment-1-1,2371471,decoding,1.137792,0.8,0.4936,0.269294,0.246634,0.4,0.3408,0.240032,5,4,2,False,0.5,2.0,0.333333,1.0,3.0,16,16,1.0,0.102446,,,,,,,67237.0,4.0,84.0
Encode-Decode_Experiment-1-1,2344622,decoding,,1.0,1.0,0.0,,0.0,0.0,0.0,1,1,0,True,1.0,2.0,1.0,1.0,2.0,18,18,1.0,0.166048,,,,,,,32372.0,5.0,41.0
Encode-Decode_Experiment-1-1,2408717,decoding,-0.418121,0.25,0.328125,0.186848,,0.0,0.0,0.0,8,2,0,False,0.666667,2.0,1.0,1.0,2.0,26,24,0.9231,0.048856,,,,,,,51079.0,6.0,83.0
Encode-Decode_Experiment-1-1,2370664,decoding,,1.0,1.0,0.0,,0.0,0.0,0.0,4,4,0,False,0.666667,2.0,1.0,1.0,2.0,17,16,0.9412,0.159114,,,,,,,54622.0,7.0,97.0
Encode-Decode_Experiment-1-1,2356991,decoding,,0.0,0.0,0.0,,0.0,0.0,0.0,6,0,0,False,0.5,2.0,1.0,1.0,2.0,20,18,0.9,0.10691,,,,,,,79990.0,8.0,140.0
Encode-Decode_Experiment-1-1,2409918,decoding,-0.912559,0.181818,0.331909,0.164473,0.108231,0.181818,0.167727,0.130193,11,2,2,False,0.75,3.0,0.666667,0.333333,4.0,20,17,0.85,0.088457,,,,,,,58745.0,9.0,89.0
Encode-Decode_Experiment-1-1,2374670,decoding,0.840992,0.5,0.332875,0.198724,1.124747,0.375,0.195625,0.15948,8,4,3,False,0.428571,3.0,1.0,0.333333,3.0,22,22,1.0,0.216077,,,,,,,38925.0,10.0,44.0
Encode-Decode_Experiment-1-1,2394020,decoding,1.519606,0.777778,0.498,0.184112,1.114345,0.333333,0.169,0.147471,9,7,3,False,0.25,1.0,-1.0,0.333333,3.0,23,22,0.9565,0.29959,,,,,,,37777.0,11.0,68.0
Encode-Decode_Experiment-1-1,2387122,decoding,0.271113,0.545455,0.500818,0.164641,,0.0,0.0,0.0,11,6,0,False,0.6,3.0,0.666667,0.333333,4.0,20,17,0.85,0.150246,,,,,,,61612.0,12.0,111.0
Encode-Decode_Experiment-1-1,2369373,decoding,0.271149,0.714286,0.656429,0.213378,,0.0,0.0,0.0,7,5,0,False,0.666667,2.0,1.0,1.0,2.0,13,13,1.0,0.100731,,,,,,,47037.0,13.0,0.0
Encode-Decode_Experiment-1-1,2385550,decoding,1.194956,0.888889,0.670444,0.182805,2.394971,0.777778,0.34,0.18279,9,8,7,False,0.333333,1.0,-1.0,1.0,2.0,18,18,1.0,0.236058,,,,,,,64294.0,14.0,134.0
Encode-Decode_Experiment-1-1,2356125,decoding,,0.0,0.0,0.0,,0.0,0.0,0.0,5,0,0,False,0.5,2.0,0.333333,1.0,3.0,18,18,1.0,0.071504,,,,,,,61707.0,15.0,122.0
Encode-Decode_Experiment-1-1,2350974,decoding,-0.486995,0.125,0.203875,0.161963,-0.430392,0.125,0.1945,0.161481,8,1,1,False,0.4,2.0,-0.666667,0.333333,4.0,17,17,1.0,0.211749,,,,,,,29496.0,16.0,46.0
Encode-Decode_Experiment-1-1,2385851,decoding,0.152334,0.222222,0.199444,0.149525,0.40323,0.111111,0.072667,0.095341,9,2,1,False,0.333333,2.0,-0.2,0.816667,5.0,16,15,0.9375,0.152109,,,,,,,31718.0,17.0,42.0
Encode-Decode_Experiment-1-1,2347400,decoding,-1.135227,0.0,0.203667,0.179406,-1.013811,0.0,0.195333,0.192672,6,0,0,False,0.4,2.0,0.333333,1.0,3.0,21,21,1.0,0.069835,,,,,,,31252.0,18.0,70.0
Encode-Decode_Experiment-1-1,2347025,decoding,2.071172,0.923077,0.600692,0.155653,3.625921,0.923077,0.401385,0.143879,13,12,12,False,0.6,3.0,0.4,0.483333,5.0,19,18,0.9474,0.081798,,,,,,,44220.0,19.0,75.0
Encode-Decode_Experiment-1-1,2410309,decoding,0.664864,0.6,0.497,0.154919,-2.080411,0.0,0.310533,0.149265,15,9,0,False,0.6,3.0,0.2,0.816667,5.0,23,23,1.0,0.176868,,,,,,,36405.0,20.0,70.0
Encode-Decode_Experiment-1-1,150472,decoding,0.201968,0.333333,0.298889,0.170544,-0.60794,0.111111,0.206444,0.156814,9,3,1,False,0.2,1.0,-1.0,0.333333,3.0,12,12,1.0,0.161246,,,,,,,38149.0,21.0,86.0
Encode-Decode_Experiment-1-1,2386442,decoding,-0.230409,0.5,0.536571,0.158723,0.137945,0.357143,0.337357,0.143432,14,7,5,False,0.5,3.0,0.333333,0.75,4.0,18,18,1.0,0.102708,,,,,,,66095.0,22.0,76.0
Encode-Decode_Experiment-1-1,2397102,decoding,-0.16838,0.166667,0.197333,0.182128,-0.725665,0.0,0.098667,0.135967,6,1,0,False,0.4,2.0,1.0,1.0,2.0,21,19,0.9048,0.054078,,,,,,,67717.0,23.0,101.0
Encode-Decode_Experiment-1-1,2345035,decoding,-0.993283,0.333333,0.523222,0.191173,-0.782585,0.222222,0.371889,0.191246,9,3,2,False,0.714286,5.0,0.619048,0.069048,7.0,17,15,0.8824,0.196564,,,,,,,28746.0,24.0,59.0
Encode-Decode_Experiment-1-1,2411268,decoding,1.786146,0.785714,0.497929,0.161121,2.46011,0.428571,0.1635,0.107748,14,11,6,False,0.5,2.0,0.333333,1.0,3.0,20,20,1.0,0.08537,,,,,,,23197.0,25.0,54.0
Encode-Decode_Experiment-1-1,2348899,decoding,0.123366,0.333333,0.307667,0.208052,0.478218,0.166667,0.101833,0.135573,6,2,1,False,0.4,2.0,-0.333333,1.0,3.0,17,16,0.9412,0.12461,,,,,,,71566.0,26.0,161.0
Encode-Decode_Experiment-1-1,2360001,decoding,1.259106,0.25,0.0995,0.119529,1.299048,0.25,0.099,0.116239,8,2,2,False,0.4,2.0,0.333333,1.0,3.0,19,18,0.9474,0.095826,,,,,,,24145.0,27.0,41.0
Encode-Decode_Experiment-1-1,2349475,decoding,2.281704,0.4,0.1342,0.116492,,0.0,0.0,0.0,10,4,0,False,0.333333,2.0,-0.333333,0.75,4.0,19,19,1.0,0.055809,,,,,,,77043.0,28.0,169.0
Encode-Decode_Experiment-1-1,2379478,decoding,,0.0,0.0,0.0,,0.0,0.0,0.0,8,0,0,False,0.4,2.0,1.0,1.0,2.0,24,22,0.9167,0.458496,,,,,,,22883.0,29.0,46.0
Encode-Decode_Experiment-1-1,2383555,decoding,0.414656,0.375,0.291,0.202578,1.032961,0.375,0.2055,0.164091,8,3,3,False,0.6,3.0,0.0,1.0,5.0,17,16,0.9412,0.189631,,,,,,,57145.0,30.0,119.0
Encode-Decode_Experiment-2-1,2379478,encoding,2.924088,0.433333,0.191833,0.08259,2.416604,0.2,0.076,0.051312,30,13,6,False,,,,,,42,39,0.9286,0.399197,0.0,5498.0,1.0,1.0,3096.0,53.0,,,
Encode-Decode_Experiment-2-1,2411268,encoding,-0.087115,0.272727,0.282136,0.108007,0.222638,0.272727,0.248909,0.106982,22,6,6,False,,,,,,39,30,0.7692,0.231935,1.0,3766.0,2.0,1.0,7271.0,32.0,,,
Encode-Decode_Experiment-2-1,2409918,encoding,2.84465,0.521739,0.240435,0.098889,3.388721,0.391304,0.132956,0.076238,23,12,9,False,,,,,,37,32,0.8649,0.206175,0.0,9287.0,3.0,1.0,7929.0,41.0,,,
Encode-Decode_Experiment-2-1,2370664,encoding,2.940658,0.44,0.18136,0.087953,3.121904,0.28,0.0874,0.061693,25,11,7,False,,,,,,43,43,1.0,0.127741,1.0,3248.0,4.0,1.0,4623.0,38.0,,,
Encode-Decode_Experiment-2-1,2356991,encoding,2.276321,0.3,0.139333,0.070582,2.375767,0.233333,0.094,0.058648,30,9,7,False,,,,,,37,34,0.9189,0.182026,1.0,10888.0,5.0,1.0,6990.0,39.0,,,
Encode-Decode_Experiment-2-1,2369373,encoding,-0.070308,0.387097,0.394097,0.099562,0.313079,0.129032,0.108548,0.065427,31,12,4,False,,,,,,39,38,0.9744,0.225094,1.0,6557.0,6.0,1.0,3815.0,7.0,,,
Encode-Decode_Experiment-2-1,2412687,encoding,-0.036055,0.375,0.380313,0.147343,1.127482,0.25,0.138063,0.099281,16,6,4,False,,,,,,35,30,0.8571,0.161694,1.0,4214.0,8.0,1.0,4284.0,23.0,,,
Encode-Decode_Experiment-2-1,150472,encoding,1.585924,0.434783,0.268391,0.104918,2.295674,0.304348,0.117478,0.081401,23,10,7,False,,,,,,37,35,0.9459,0.094441,1.0,2629.0,9.0,1.0,3299.0,10.0,,,
Encode-Decode_Experiment-2-1,2397102,encoding,2.270703,0.5,0.2482,0.110891,1.175764,0.25,0.14045,0.093173,20,10,5,False,,,,,,42,39,0.9286,0.129092,1.0,2582.0,11.0,1.0,5618.0,42.0,,,
Encode-Decode_Experiment-2-1,2362704,encoding,0.043275,0.192308,0.188385,0.090655,-0.130035,0.115385,0.124654,0.071283,26,5,3,False,,,,,,34,33,0.9706,0.139211,1.0,3702.0,12.0,1.0,1876.0,54.0,,,
Encode-Decode_Experiment-2-1,2385550,encoding,3.804287,0.296296,0.082852,0.056106,,0.0,0.0,0.0,27,8,0,False,,,,,,42,40,0.9524,0.219109,1.0,8090.0,13.0,1.0,3239.0,59.0,,,
Encode-Decode_Experiment-2-1,2385851,encoding,-1.785738,0.0,0.1335,0.074759,-1.513972,0.0,0.111955,0.073948,22,0,0,False,,,,,,35,33,0.9429,0.221903,1.0,2645.0,14.0,0.0,6158.0,60.0,,,
Encode-Decode_Experiment-2-1,2344622,encoding,-0.171378,0.3125,0.333625,0.123265,-0.679974,0.125,0.200563,0.111126,16,5,2,False,,,,,,36,31,0.8611,0.211338,1.0,3756.0,15.0,1.0,4424.0,29.0,,,
Encode-Decode_Experiment-2-1,2410309,encoding,-0.459805,0.1,0.14345,0.094497,0.052177,0.05,0.0473,0.051747,20,2,1,False,,,,,,41,41,1.0,0.255183,1.0,3678.0,16.0,1.0,3459.0,28.0,,,
Encode-Decode_Experiment-2-1,2367132,encoding,1.799592,0.315789,0.142579,0.09625,1.909472,0.263158,0.106316,0.082139,19,6,5,False,,,,,,38,37,0.9737,0.123725,1.0,3794.0,17.0,1.0,3685.0,40.0,,,
Encode-Decode_Experiment-2-1,2350974,encoding,1.277022,0.545455,0.330455,0.16836,1.336451,0.454545,0.263,0.143324,11,6,5,False,,,,,,31,16,0.5161,0.2135,1.0,6600.0,18.0,1.0,5674.0,58.0,,,
Encode-Decode_Experiment-2-1,2347025,encoding,0.4934,0.666667,0.590667,0.154033,0.50741,0.4,0.330933,0.136116,15,10,6,False,,,,,,38,38,1.0,0.10076,0.0,3439.0,19.0,1.0,5379.0,50.0,,,
Encode-Decode_Experiment-2-1,2360001,encoding,3.555574,0.190476,0.036333,0.043352,,0.0,0.0,0.0,21,4,0,False,,,,,,31,31,1.0,0.319628,1.0,4367.0,20.0,1.0,9546.0,51.0,,,
Encode-Decode_Experiment-2-1,2356125,encoding,-0.392903,0.190476,0.230762,0.102533,0.195886,0.095238,0.081571,0.069769,21,4,2,False,,,,,,37,30,0.8108,0.323423,1.0,6111.0,21.0,1.0,5162.0,22.0,,,
Encode-Decode_Experiment-2-1,2408717,encoding,-0.372013,0.217391,0.256783,0.105887,-0.665182,0.043478,0.087348,0.065951,23,5,1,False,,,,,,36,27,0.75,0.218882,1.0,4176.0,24.0,1.0,5085.0,56.0,,,
Encode-Decode_Experiment-2-1,2349475,encoding,0.940489,0.181818,0.111045,0.075251,1.767092,0.181818,0.070727,0.062867,22,4,4,False,,,,,,43,37,0.8605,0.093206,1.0,8024.0,25.0,1.0,8919.0,52.0,,,
Encode-Decode_Experiment-2-1,2345035,encoding,-0.664166,0.142857,0.200536,0.086844,-0.779499,0.071429,0.127179,0.07152,28,4,2,False,,,,,,40,35,0.875,0.228074,1.0,11463.0,26.0,1.0,4420.0,36.0,,,
Encode-Decode_Experiment-2-1,2371471,encoding,-0.504208,0.222222,0.269741,0.094244,0.023739,0.111111,0.109519,0.067089,27,6,3,False,,,,,,32,32,1.0,0.48056,1.0,5253.0,27.0,0.0,7494.0,30.0,,,
Encode-Decode_Experiment-2-1,2347400,encoding,2.544912,0.5,0.203944,0.116332,2.734828,0.5,0.196167,0.111098,18,9,9,False,,,,,,37,35,0.9459,0.22687,1.0,2490.0,31.0,1.0,1932.0,46.0,,,
Encode-Decode_Experiment-2-1,2383555,encoding,0.002267,0.125,0.124833,0.073527,0.725924,0.083333,0.048125,0.048501,24,3,2,False,,,,,,37,33,0.8919,0.221859,1.0,3331.0,33.0,1.0,3728.0,43.0,,,
Encode-Decode_Experiment-2-1,2348899,encoding,3.87696,0.761905,0.335571,0.109966,3.694145,0.761905,0.337429,0.114905,21,16,16,False,,,,,,37,37,1.0,0.193031,0.0,6166.0,34.0,1.0,7291.0,37.0,,,
Encode-Decode_Experiment-2-1,2374670,encoding,1.917099,0.684211,0.422368,0.136582,2.658246,0.631579,0.307947,0.121746,19,13,12,False,,,,,,33,28,0.8485,0.270729,0.0,10456.0,35.0,1.0,9186.0,49.0,,,
Encode-Decode_Experiment-2-1,2387122,encoding,0.299138,0.413793,0.381862,0.106744,-1.051637,0.137931,0.234586,0.091909,29,12,4,False,,,,,,38,38,1.0,0.20467,1.0,3419.0,44.0,1.0,7912.0,48.0,,,
Encode-Decode_Experiment-2-1,2386442,encoding,3.055224,0.727273,0.362318,0.119453,4.130084,0.727273,0.275409,0.109408,22,16,16,False,,,,,,43,43,1.0,0.121236,0.0,6521.0,45.0,1.0,4423.0,55.0,,,
Encode-Decode_Experiment-2-1,2394020,encoding,2.381256,0.761905,0.467429,0.123664,2.262446,0.333333,0.145095,0.083201,21,16,7,False,,,,,,37,27,0.7297,0.351042,1.0,2375.0,47.0,1.0,3578.0,57.0,,,
Encode-Decode_Experiment-2-1,2362704,decoding,-1.0083,0.0,0.069375,0.068804,,0.0,0.0,0.0,16,0,0,False,0.333333,2.0,0.333333,1.0,3.0,20,20,1.0,0.153456,,,,,,,41147.0,1.0,68.0
Encode-Decode_Experiment-2-1,150472,decoding,-0.150394,0.142857,0.165571,0.151032,,0.0,0.0,0.0,7,1,0,False,0.75,3.0,0.333333,0.75,4.0,12,12,1.0,0.065708,,,,,,,32670.0,2.0,52.0
Encode-Decode_Experiment-2-1,2386442,decoding,0.703086,0.5,0.342167,0.224487,1.949695,0.5,0.167667,0.170454,6,3,3,False,0.5,2.0,1.0,1.0,2.0,14,13,0.9286,0.044563,,,,,,,116372.0,3.0,193.0
Encode-Decode_Experiment-2-1,2356125,decoding,,,,,,,,,0,0,0,True,1.0,1.0,,,1.0,14,14,1.0,0.074841,,,,,,,94950.0,4.0,173.0
Encode-Decode_Experiment-2-1,2349475,decoding,-0.565369,0.076923,0.14,0.111568,-0.230339,0.076923,0.098077,0.091838,13,1,1,False,0.428571,3.0,0.4,0.483333,5.0,17,16,0.9412,0.159614,,,,,,,50667.0,5.0,125.0
Encode-Decode_Experiment-2-1,2385851,decoding,0.684794,0.266667,0.1858,0.118089,0.608248,0.2,0.136533,0.104343,15,4,3,False,0.428571,3.0,0.2,0.816667,5.0,19,18,0.9474,0.220397,,,,,,,31816.0,6.0,41.0
Encode-Decode_Experiment-2-1,2412687,decoding,-0.801581,0.0,0.171,0.213328,,0.0,0.0,0.0,4,0,0,False,1.0,4.0,1.0,0.083333,4.0,15,13,0.8667,0.066356,,,,,,,99840.0,7.0,110.0
Encode-Decode_Experiment-2-1,2374670,decoding,-1.029869,0.285714,0.488143,0.196558,-0.936618,0.142857,0.337143,0.207433,7,2,1,False,0.75,3.0,1.0,0.333333,3.0,12,12,1.0,0.305899,,,,,,,36093.0,8.0,83.0
Encode-Decode_Experiment-2-1,2345035,decoding,-0.394948,0.25,0.326875,0.194646,-0.401342,0.25,0.326375,0.190299,8,2,2,False,1.0,3.0,1.0,0.333333,3.0,13,13,1.0,0.243879,,,,,,,47594.0,9.0,81.0
Encode-Decode_Experiment-2-1,2383555,decoding,0.436293,0.333333,0.26,0.168083,0.130724,0.222222,0.202333,0.152143,9,3,2,False,0.5,3.0,0.2,0.816667,5.0,15,14,0.9333,0.124215,,,,,,,53563.0,10.0,132.0
Encode-Decode_Experiment-2-1,2347400,decoding,1.434294,0.4,0.2034,0.137071,-0.235817,0.1,0.1263,0.111527,10,4,1,False,0.666667,4.0,1.0,0.083333,4.0,15,15,1.0,0.118355,,,,,,,51094.0,11.0,134.0
Encode-Decode_Experiment-2-1,2347025,decoding,0.470615,0.875,0.7995,0.160428,-0.704317,0.25,0.4075,0.223621,8,7,2,False,0.6,3.0,0.2,0.816667,5.0,19,19,1.0,0.119685,,,,,,,40395.0,12.0,108.0
Encode-Decode_Experiment-2-1,2385550,decoding,0.647146,0.444444,0.327,0.181481,0.137786,0.222222,0.200333,0.158861,9,4,2,False,0.5,3.0,0.0,1.0,5.0,19,15,0.7895,0.191269,,,,,,,61014.0,13.0,107.0
Encode-Decode_Experiment-2-1,2348899,decoding,-0.606221,0.375,0.493125,0.194855,-0.293558,0.125,0.16875,0.149033,8,3,1,False,0.5,2.0,1.0,1.0,2.0,15,13,0.8667,0.134571,,,,,,,53326.0,14.0,112.0
Encode-Decode_Experiment-2-1,2409918,decoding,1.078822,1.0,0.831714,0.15599,1.176836,0.571429,0.329714,0.205393,7,7,4,False,0.75,3.0,0.666667,0.333333,4.0,13,13,1.0,0.125211,,,,,,,34963.0,15.0,94.0
Encode-Decode_Experiment-2-1,2379478,decoding,-0.058045,0.444444,0.455556,0.191421,0.39677,0.333333,0.271444,0.155982,9,4,3,False,0.666667,4.0,0.733333,0.055556,6.0,17,17,1.0,0.42265,,,,,,,26790.0,16.0,49.0
Encode-Decode_Experiment-2-1,2371471,decoding,,0.0,0.0,0.0,,0.0,0.0,0.0,2,0,0,False,1.0,2.0,1.0,1.0,2.0,14,14,1.0,0.139538,,,,,,,36449.0,17.0,0.0
Encode-Decode_Experiment-2-1,2397102,decoding,0.576662,0.375,0.274875,0.173629,1.737809,0.375,0.132375,0.139615,8,3,3,False,0.166667,1.0,,,1.0,19,19,1.0,0.062052,,,,,,,73061.0,20.0,143.0
Encode-Decode_Experiment-2-1,2411268,decoding,,,,,,,,,0,0,0,True,1.0,1.0,,,1.0,16,1,0.0625,0.018178,,,,,,,40389.0,21.0,63.0
Encode-Decode_Experiment-2-1,2394020,decoding,,1.0,1.0,0.0,,0.0,0.0,0.0,4,4,0,False,0.666667,2.0,1.0,1.0,2.0,13,11,0.8462,0.089789,,,,,,,30391.0,22.0,63.0
Encode-Decode_Experiment-2-1,2344622,decoding,1.729974,1.0,0.66725,0.192344,,0.0,0.0,0.0,8,8,0,False,0.0,0.0,,,0.0,17,17,1.0,0.294127,,,,,,,36576.0,23.0,93.0
Encode-Decode_Experiment-2-1,2360001,decoding,,0.0,0.0,0.0,,0.0,0.0,0.0,9,0,0,False,0.666667,2.0,1.0,1.0,2.0,19,19,1.0,0.139017,,,,,,,33002.0,24.0,84.0
Encode-Decode_Experiment-2-1,2356991,decoding,,0.0,0.0,0.0,,0.0,0.0,0.0,2,0,0,False,1.0,2.0,1.0,1.0,2.0,12,12,1.0,0.038629,,,,,,,33028.0,25.0,82.0
Encode-Decode_Experiment-2-1,2387122,decoding,,,,,,,,,0,0,0,True,0.0,0.0,,,0.0,11,1,0.0909,0.008175,,,,,,,48628.0,26.0,102.0
Encode-Decode_Experiment-2-1,2370664,decoding,,1.0,1.0,0.0,,1.0,1.0,0.0,2,2,2,False,0.5,1.0,,,1.0,11,10,0.9091,0.103671,,,,,,,49780.0,27.0,154.0
Encode-Decode_Experiment-2-1,2408717,decoding,,1.0,1.0,0.0,,0.0,0.0,0.0,3,3,0,False,0.333333,1.0,,,1.0,9,9,1.0,0.041422,,,,,,,35022.0,28.0,106.0
Encode-Decode_Experiment-2-1,2350974,decoding,-2.711135,0.125,0.658125,0.196643,-2.827286,0.125,0.676375,0.195019,8,1,1,False,0.333333,1.0,-1.0,1.0,2.0,14,14,1.0,0.161599,,,,,,,20199.0,29.0,48.0
Encode-Decode_Experiment-2-1,2367132,decoding,,,,,,,,,0,0,0,True,0.0,0.0,,,0.0,11,11,1.0,0.00241,,,,,,,35200.0,30.0,78.0
Encode-Decode_Experiment-3-1,2348899,encoding,3.36501,0.608696,0.262783,0.102797,3.31332,0.434783,0.155261,0.084363,23,14,10,False,,,,,,33,32,0.9697,0.196117,1.0,4282.0,1.0,0.0,6102.0,38.0,,,
Encode-Decode_Experiment-3-1,2385550,encoding,2.299355,0.526316,0.265316,0.11351,-1.05642,0.0,0.068684,0.065016,19,10,0,False,,,,,,34,33,0.9706,0.158456,1.0,2750.0,2.0,1.0,4765.0,37.0,,,
Encode-Decode_Experiment-3-1,2349475,encoding,-0.27773,0.125,0.149375,0.087765,0.217797,0.125,0.108958,0.073654,24,3,3,False,,,,,,37,32,0.8649,0.065952,1.0,3344.0,3.0,1.0,3399.0,35.0,,,
Encode-Decode_Experiment-3-1,2350974,encoding,1.53063,0.722222,0.529222,0.126092,1.33825,0.555556,0.398667,0.117234,18,13,10,False,,,,,,37,30,0.8108,0.228493,1.0,5201.0,4.0,1.0,4508.0,49.0,,,
Encode-Decode_Experiment-3-1,2371471,encoding,1.614844,0.304348,0.159826,0.089496,1.496415,0.173913,0.081043,0.062061,23,7,4,False,,,,,,32,32,1.0,0.351353,1.0,7735.0,5.0,1.0,6461.0,19.0,,,
Encode-Decode_Experiment-3-1,2356125,encoding,1.111384,0.384615,0.280769,0.093439,-0.108081,0.076923,0.083769,0.063343,26,10,2,False,,,,,,37,31,0.8378,0.278912,1.0,3202.0,6.0,0.0,8233.0,32.0,,,
Encode-Decode_Experiment-3-1,2387122,encoding,1.463204,0.681818,0.493682,0.128578,1.919942,0.318182,0.145409,0.089989,22,15,7,False,,,,,,41,41,1.0,0.118037,1.0,3643.0,7.0,1.0,5943.0,22.0,,,
Encode-Decode_Experiment-3-1,2369373,encoding,0.358287,0.538462,0.4985,0.111535,1.216223,0.269231,0.167308,0.083803,26,14,7,False,,,,,,40,34,0.85,0.249228,1.0,3456.0,8.0,1.0,3757.0,34.0,,,
Encode-Decode_Experiment-3-1,2394020,encoding,2.992126,0.85,0.469,0.127334,-0.912561,0.05,0.12915,0.086734,20,17,1,False,,,,,,31,28,0.9032,0.241137,1.0,2717.0,9.0,1.0,2682.0,30.0,,,
Encode-Decode_Experiment-3-1,2370664,encoding,2.33037,0.478261,0.242087,0.101346,-1.131153,0.086957,0.187087,0.088521,23,11,2,False,,,,,,38,36,0.9474,0.122624,1.0,3000.0,10.0,1.0,3536.0,53.0,,,
Encode-Decode_Experiment-3-1,150472,encoding,1.414777,0.695652,0.533435,0.114659,-1.126348,0.043478,0.138348,0.084228,23,16,1,False,,,,,,36,36,1.0,0.095156,1.0,4279.0,11.0,1.0,2566.0,25.0,,,
Encode-Decode_Experiment-3-1,2411268,encoding,3.48747,0.653846,0.289423,0.104495,4.475641,0.615385,0.215923,0.089252,26,17,16,False,,,,,,41,36,0.878,0.203535,1.0,5474.0,12.0,1.0,5107.0,54.0,,,
Encode-Decode_Experiment-3-1,2385851,encoding,1.790687,0.368421,0.188316,0.100579,1.323363,0.157895,0.073368,0.063872,19,7,3,False,,,,,,38,28,0.7368,0.288481,1.0,3774.0,13.0,1.0,9158.0,14.0,,,
Encode-Decode_Experiment-3-1,2379478,encoding,2.128851,0.5,0.278692,0.103956,-1.384199,0.038462,0.139346,0.072883,26,13,1,False,,,,,,38,35,0.9211,0.400744,1.0,3800.0,15.0,1.0,3966.0,36.0,,,
Encode-Decode_Experiment-3-1,2347400,encoding,1.798775,0.409091,0.218591,0.105905,0.025828,0.136364,0.134273,0.080954,22,9,3,False,,,,,,36,33,0.9167,0.221102,1.0,2576.0,16.0,1.0,4822.0,41.0,,,
Encode-Decode_Experiment-3-1,2386442,encoding,0.465907,0.482759,0.431414,0.110204,-1.171591,0.206897,0.321483,0.097804,29,14,6,False,,,,,,47,46,0.9787,0.088028,0.0,4849.0,17.0,1.0,4988.0,18.0,,,
Encode-Decode_Experiment-3-1,2344622,encoding,-1.072029,0.055556,0.154667,0.092452,-1.182168,0.0,0.084,0.071056,18,1,0,False,,,,,,42,38,0.9048,0.18236,1.0,5153.0,20.0,1.0,4767.0,60.0,,,
Encode-Decode_Experiment-3-1,2410309,encoding,-1.187929,0.147059,0.251853,0.088216,-0.332776,0.088235,0.108912,0.062133,34,5,3,False,,,,,,49,48,0.9796,0.198075,1.0,4308.0,21.0,1.0,3773.0,46.0,,,
Encode-Decode_Experiment-3-1,2408717,encoding,0.08765,0.285714,0.276619,0.103767,-0.272307,0.047619,0.063524,0.058408,21,6,1,False,,,,,,39,25,0.641,0.223449,1.0,2913.0,23.0,1.0,3465.0,57.0,,,
Encode-Decode_Experiment-3-1,2345035,encoding,-0.376141,0.214286,0.251214,0.098178,-1.533435,0.035714,0.159,0.080398,28,6,1,False,,,,,,47,36,0.766,0.169135,0.0,5740.0,24.0,1.0,7094.0,29.0,,,
Encode-Decode_Experiment-3-1,2409918,encoding,3.767248,0.65,0.25375,0.105183,2.518439,0.35,0.14065,0.083127,20,13,7,False,,,,,,43,34,0.7907,0.13324,1.0,4704.0,26.0,1.0,7098.0,28.0,,,
Encode-Decode_Experiment-3-1,2367132,encoding,4.468619,0.55,0.1462,0.090363,6.897704,0.45,0.0549,0.05728,20,11,9,False,,,,,,34,31,0.9118,0.090705,1.0,2652.0,27.0,1.0,3886.0,58.0,,,
Encode-Decode_Experiment-3-1,2412687,encoding,0.351895,0.526316,0.481474,0.12743,0.718067,0.263158,0.188,0.104667,19,10,5,False,,,,,,32,30,0.9375,0.106788,1.0,2861.0,31.0,1.0,3810.0,56.0,,,
Encode-Decode_Experiment-3-1,2397102,encoding,1.213798,0.4375,0.280375,0.129449,-0.209676,0.125,0.1465,0.102539,16,7,2,False,,,,,,48,41,0.8542,0.048408,1.0,2872.0,33.0,1.0,2315.0,59.0,,,
Encode-Decode_Experiment-3-1,2362704,encoding,1.760833,0.16129,0.072774,0.050269,-1.029999,0.0,0.035161,0.034137,31,5,0,False,,,,,,37,35,0.9459,0.169971,1.0,3361.0,39.0,1.0,2282.0,40.0,,,
Encode-Decode_Experiment-3-1,2356991,encoding,0.834267,0.304348,0.224391,0.095841,-0.853563,0.086957,0.16513,0.091585,23,7,2,False,,,,,,31,28,0.9032,0.110549,1.0,4980.0,42.0,1.0,4967.0,50.0,,,
Encode-Decode_Experiment-3-1,2347025,encoding,-2.606057,0.5,0.797312,0.114085,-1.760028,0.125,0.399625,0.156034,16,8,2,False,,,,,,30,30,1.0,0.091809,1.0,2461.0,43.0,1.0,3886.0,55.0,,,
Encode-Decode_Experiment-3-1,2383555,encoding,-0.45513,0.041667,0.066542,0.054655,-0.065815,0.041667,0.044417,0.041784,24,1,1,False,,,,,,39,32,0.8205,0.192574,1.0,3169.0,44.0,1.0,2954.0,48.0,,,
Encode-Decode_Experiment-3-1,2374670,encoding,0.364505,0.333333,0.287762,0.125023,0.475464,0.190476,0.143714,0.09835,21,7,4,False,,,,,,38,32,0.8421,0.299856,1.0,2330.0,45.0,0.0,10675.0,52.0,,,
Encode-Decode_Experiment-3-1,2360001,encoding,3.127842,0.407407,0.166185,0.077121,1.011341,0.111111,0.05863,0.051893,27,11,3,False,,,,,,41,40,0.9756,0.236939,0.0,8085.0,47.0,1.0,4486.0,51.0,,,
Encode-Decode_Experiment-3-1,2349475,decoding,1.057191,0.5,0.3069,0.182654,1.399735,0.4,0.1958,0.145885,10,5,4,False,0.4,2.0,0.0,1.0,4.0,14,14,1.0,0.083703,,,,,,,12112.0,1.0,47.0
Encode-Decode_Experiment-3-1,2409918,decoding,,0.0,0.0,0.0,,0.0,0.0,0.0,2,0,0,False,1.0,2.0,1.0,1.0,2.0,11,11,1.0,0.021559,,,,,,,7036.0,2.0,30.0
Encode-Decode_Experiment-3-1,2383555,decoding,0.737571,0.214286,0.137429,0.104203,-0.029828,0.071429,0.073714,0.076631,14,3,1,False,0.5,4.0,0.2,0.719444,6.0,19,17,0.8947,0.134081,,,,,,,3621.0,3.0,10.0
Encode-Decode_Experiment-3-1,2387122,decoding,,0.0,0.0,0.0,,0.0,0.0,0.0,1,0,0,True,1.0,2.0,1.0,1.0,2.0,14,3,0.2143,0.07146,,,,,,,12734.0,4.0,55.0
Encode-Decode_Experiment-3-1,2410309,decoding,,0.0,0.0,0.0,,0.0,0.0,0.0,2,0,0,False,0.5,1.0,-1.0,1.0,2.0,6,6,1.0,0.15008,,,,,,,16315.0,5.0,61.0
Encode-Decode_Experiment-3-1,2356991,decoding,,,,,,,,,0,0,0,True,1.0,1.0,,,1.0,11,11,1.0,0.043374,,,,,,,8224.0,6.0,31.0
Encode-Decode_Experiment-3-1,2386442,decoding,,1.0,1.0,0.0,0.473134,0.5,0.3225,0.375158,2,2,1,False,0.666667,2.0,1.0,1.0,2.0,8,6,0.75,0.12274,,,,,,,6809.0,7.0,31.0
Encode-Decode_Experiment-3-1,2348899,decoding,0.480829,0.666667,0.504333,0.337611,,0.0,0.0,0.0,3,2,0,False,0.75,3.0,1.0,0.333333,3.0,6,6,1.0,0.089038,,,,,,,11233.0,8.0,50.0
Encode-Decode_Experiment-3-1,2362704,decoding,,0.0,0.0,0.0,,0.0,0.0,0.0,3,0,0,False,0.333333,1.0,-1.0,0.333333,3.0,7,4,0.5714,0.01996,,,,,,,8633.0,9.0,35.0
Encode-Decode_Experiment-3-1,2370664,decoding,-0.405178,0.5,0.653,0.377612,,0.0,0.0,0.0,2,1,0,False,0.333333,1.0,,,1.0,7,3,0.4286,0.282149,,,,,,,9618.0,10.0,41.0
Encode-Decode_Experiment-3-1,2367132,decoding,-1.508302,0.333333,0.666167,0.220668,-0.005077,0.333333,0.3345,0.229792,6,2,2,False,0.666667,2.0,-0.333333,1.0,3.0,12,12,1.0,0.04617,,,,,,,10604.0,11.0,42.0
Encode-Decode_Experiment-3-1,2394020,decoding,,1.0,1.0,0.0,,0.0,0.0,0.0,1,1,0,True,0.5,1.0,-1.0,1.0,2.0,12,12,1.0,0.115845,,,,,,,11518.0,12.0,47.0
Encode-Decode_Experiment-3-1,2412687,decoding,0.638552,0.25,0.160625,0.139965,,0.0,0.0,0.0,8,2,0,False,0.25,1.0,-1.0,0.083333,4.0,20,19,0.95,0.025826,,,,,,,2802.0,13.0,10.0
Encode-Decode_Experiment-3-1,2408717,decoding,0.308915,0.4,0.3262,0.238901,,0.0,0.0,0.0,5,2,0,False,0.75,3.0,1.0,0.333333,3.0,15,15,1.0,0.1852,,,,,,,12244.0,14.0,47.0
Encode-Decode_Experiment-3-1,2356125,decoding,,,,,,,,,0,0,0,True,1.0,1.0,,,1.0,9,9,1.0,0.040274,,,,,,,19740.0,15.0,71.0
Encode-Decode_Experiment-3-1,2379478,decoding,1.239704,1.0,0.66325,0.271637,0.613962,0.5,0.333,0.272004,4,4,2,False,0.666667,2.0,1.0,1.0,2.0,5,5,1.0,0.249157,,,,,,,15376.0,16.0,64.0
Encode-Decode_Experiment-3-1,2360001,decoding,-1.566644,0.0,0.327857,0.209274,-1.06075,0.0,0.162571,0.153261,7,0,0,False,0.25,1.0,-1.0,0.333333,3.0,12,12,1.0,0.217801,,,,,,,10930.0,17.0,45.0
Encode-Decode_Experiment-3-1,2371471,decoding,0.313723,0.75,0.66425,0.27333,-0.77121,0.0,0.15275,0.198065,4,3,0,False,0.5,2.0,0.0,1.0,4.0,15,14,0.9333,0.188777,,,,,,,10766.0,18.0,49.0
Encode-Decode_Experiment-3-1,2350974,decoding,1.906416,0.75,0.39175,0.187918,-0.098148,0.25,0.26725,0.175755,8,6,2,False,0.5,3.0,0.0,1.0,4.0,18,16,0.8889,0.184981,,,,,,,9610.0,19.0,42.0
Encode-Decode_Experiment-3-1,2347025,decoding,,1.0,1.0,0.0,,0.0,0.0,0.0,1,1,0,True,1.0,2.0,1.0,1.0,2.0,6,6,1.0,0.0524,,,,,,,7611.0,20.0,37.0
Encode-Decode_Experiment-3-1,2374670,decoding,,,,,,,,,0,0,0,True,1.0,1.0,,,1.0,17,17,1.0,0.078419,,,,,,,21500.0,21.0,83.0
Encode-Decode_Experiment-3-1,2344622,decoding,-0.459143,0.333333,0.491,0.343393,,0.0,0.0,0.0,3,1,0,False,0.5,2.0,-0.333333,1.0,3.0,7,7,1.0,0.104069,,,,,,,12296.0,22.0,54.0
Encode-Decode_Experiment-3-1,2385851,decoding,,0.0,0.0,0.0,,0.0,0.0,0.0,5,0,0,False,0.25,1.0,-1.0,1.0,2.0,10,10,1.0,0.229994,,,,,,,16630.0,23.0,73.0
Encode-Decode_Experiment-3-1,2385550,decoding,1.878046,1.0,0.4872,0.27305,1.043476,0.6,0.3484,0.241117,5,5,3,False,0.5,2.0,1.0,1.0,2.0,10,10,1.0,0.095316,,,,,,,15127.0,24.0,75.0
Encode-Decode_Experiment-3-1,2397102,decoding,,,,,,,,,0,0,0,True,1.0,1.0,,,1.0,12,12,1.0,0.045433,,,,,,,11868.0,25.0,55.0
Encode-Decode_Experiment-3-1,2347400,decoding,,,,,,,,,0,0,0,True,1.0,1.0,,,1.0,2,2,1.0,0.014773,,,,,,,12323.0,26.0,56.0
Encode-Decode_Experiment-3-1,2411268,decoding,,0.0,0.0,0.0,,0.0,0.0,0.0,1,0,0,True,0.5,1.0,,,1.0,13,13,1.0,0.07675,,,,,,,26974.0,27.0,64.0
Encode-Decode_Experiment-3-1,150472,decoding,1.028901,0.6,0.3424,0.250364,1.152083,0.6,0.327,0.236962,5,3,3,False,0.25,1.0,-1.0,1.0,2.0,7,7,1.0,0.052404,,,,,,,14793.0,28.0,61.0
Encode-Decode_Experiment-3-1,2369373,decoding,1.774127,0.5,0.2085,0.164306,,0.0,0.0,0.0,8,4,0,False,0.166667,1.0,-1.0,1.0,2.0,11,10,0.9091,0.169613,,,,,,,6788.0,29.0,22.0
Encode-Decode_Experiment-3-1,2345035,decoding,0.005465,0.333333,0.331667,0.304954,,0.0,0.0,0.0,3,1,0,False,0.666667,2.0,1.0,1.0,2.0,7,5,0.7143,0.250669,,,,,,,12565.0,30.0,56.0
Encode-Decode_Experiment-4-1,2397102,encoding,3.316107,0.518519,0.203,0.095147,4.247669,0.444444,0.132111,0.073531,27,14,12,False,,,,,,36,36,1.0,0.116982,1.0,9432.0,1.0,1.0,2935.0,36.0,,,
Encode-Decode_Experiment-4-1,2356125,encoding,-0.93833,0.153846,0.290385,0.145512,-1.102075,0.0,0.095,0.086201,13,2,0,False,,,,,,33,30,0.9091,0.135133,1.0,5575.0,2.0,0.0,7698.0,6.0,,,
Encode-Decode_Experiment-4-1,2347400,encoding,0.385679,0.26087,0.223826,0.096048,0.453074,0.217391,0.176609,0.090013,23,6,5,False,,,,,,37,33,0.8919,0.210394,1.0,6584.0,3.0,1.0,3796.0,10.0,,,
Encode-Decode_Experiment-4-1,2379478,encoding,2.276744,0.48,0.2516,0.100319,0.670838,0.24,0.17932,0.090454,25,12,6,False,,,,,,36,36,1.0,0.317734,1.0,6000.0,4.0,1.0,3672.0,37.0,,,
Encode-Decode_Experiment-4-1,2385550,encoding,0.971378,0.259259,0.179185,0.082433,-0.261132,0.074074,0.090111,0.061414,27,7,2,False,,,,,,37,36,0.973,0.241754,0.0,4753.0,5.0,1.0,3409.0,18.0,,,
Encode-Decode_Experiment-4-1,2362704,encoding,-0.019947,0.133333,0.1348,0.073531,0.918165,0.1,0.0569,0.046941,30,4,3,False,,,,,,32,32,1.0,0.13307,1.0,2269.0,7.0,1.0,2925.0,44.0,,,
Encode-Decode_Experiment-4-1,2394020,encoding,2.079047,0.833333,0.556667,0.133074,-0.551531,0.166667,0.226889,0.109191,18,15,3,False,,,,,,31,29,0.9355,0.241063,1.0,3299.0,8.0,1.0,5201.0,47.0,,,
Encode-Decode_Experiment-4-1,2374670,encoding,1.21222,0.48,0.34844,0.108528,1.730486,0.4,0.24276,0.090865,25,12,10,False,,,,,,33,30,0.9091,0.273023,1.0,10670.0,9.0,1.0,5883.0,15.0,,,
Encode-Decode_Experiment-4-1,2409918,encoding,2.474816,0.666667,0.377722,0.116754,3.076993,0.555556,0.236,0.103853,18,12,10,False,,,,,,34,32,0.9412,0.143787,1.0,5324.0,11.0,1.0,4161.0,24.0,,,
Encode-Decode_Experiment-4-1,2345035,encoding,0.260286,0.222222,0.198704,0.090357,0.630962,0.148148,0.105926,0.066917,27,6,4,False,,,,,,39,32,0.8205,0.161992,1.0,7310.0,12.0,1.0,4581.0,53.0,,,
Encode-Decode_Experiment-4-1,2383555,encoding,-1.468165,0.0,0.113174,0.077085,-0.929194,0.0,0.044304,0.04768,23,0,0,False,,,,,,34,27,0.7941,0.162869,1.0,4161.0,13.0,1.0,3201.0,60.0,,,
Encode-Decode_Experiment-4-1,2386442,encoding,3.495187,0.666667,0.311111,0.101727,4.576887,0.666667,0.242556,0.092664,27,18,18,False,,,,,,38,38,1.0,0.118407,0.0,4579.0,14.0,1.0,4371.0,52.0,,,
Encode-Decode_Experiment-4-1,2385851,encoding,-0.171115,0.111111,0.123148,0.070345,-0.250697,0.037037,0.048148,0.044321,27,3,1,False,,,,,,33,31,0.9394,0.218636,1.0,9568.0,16.0,1.0,3301.0,20.0,,,
Encode-Decode_Experiment-4-1,2369373,encoding,1.351349,0.521739,0.365522,0.115601,-0.284908,0.086957,0.108261,0.074776,23,12,2,False,,,,,,38,36,0.9474,0.196659,1.0,4369.0,17.0,1.0,5755.0,33.0,,,
Encode-Decode_Experiment-4-1,2410309,encoding,-1.27019,0.107143,0.225214,0.092956,-0.622892,0.107143,0.158571,0.082564,28,3,3,False,,,,,,37,36,0.973,0.207211,1.0,4688.0,19.0,1.0,4008.0,29.0,,,
Encode-Decode_Experiment-4-1,2412687,encoding,2.501584,0.428571,0.210429,0.087202,3.378949,0.285714,0.071048,0.063531,21,9,6,False,,,,,,39,35,0.8974,0.206351,1.0,6241.0,21.0,0.0,5765.0,35.0,,,
Encode-Decode_Experiment-4-1,2349475,encoding,1.827507,0.230769,0.110192,0.065979,2.93235,0.192308,0.052462,0.047691,26,6,5,False,,,,,,38,36,0.9474,0.073026,1.0,3326.0,22.0,1.0,12925.0,28.0,,,
Encode-Decode_Experiment-4-1,2347025,encoding,2.293579,0.636364,0.376818,0.113162,0.774906,0.272727,0.202182,0.091037,22,14,6,False,,,,,,34,29,0.8529,0.122783,1.0,4993.0,23.0,1.0,6543.0,46.0,,,
Encode-Decode_Experiment-4-1,2360001,encoding,1.96929,0.28,0.13984,0.071173,2.268409,0.16,0.0518,0.047699,25,7,4,False,,,,,,32,31,0.9688,0.333617,1.0,4401.0,25.0,1.0,5281.0,50.0,,,
Encode-Decode_Experiment-4-1,2370664,encoding,0.880341,0.4,0.2993,0.114388,-1.08931,0.1,0.2051,0.096483,20,8,2,False,,,,,,35,35,1.0,0.148556,1.0,4449.0,26.0,1.0,2957.0,39.0,,,
Encode-Decode_Experiment-4-1,2411268,encoding,1.843563,0.470588,0.247824,0.120834,2.345728,0.411765,0.164824,0.105273,17,8,7,False,,,,,,32,25,0.7812,0.269349,1.0,5263.0,27.0,1.0,5133.0,59.0,,,
Encode-Decode_Experiment-4-1,2387122,encoding,1.061913,0.35,0.23985,0.103728,0.751028,0.15,0.09385,0.074764,20,7,3,False,,,,,,25,22,0.88,0.19925,1.0,6511.0,30.0,1.0,3898.0,43.0,,,
Encode-Decode_Experiment-4-1,2344622,encoding,-0.07935,0.3,0.30885,0.111531,-0.181819,0.15,0.16685,0.092675,20,6,3,False,,,,,,35,26,0.7429,0.246308,1.0,5850.0,31.0,1.0,4554.0,41.0,,,
Encode-Decode_Experiment-4-1,2408717,encoding,1.097046,0.217391,0.133435,0.07653,-1.220715,0.0,0.065391,0.053568,23,5,0,False,,,,,,37,34,0.9189,0.232961,1.0,2687.0,32.0,0.0,3872.0,48.0,,,
Encode-Decode_Experiment-4-1,2367132,encoding,5.581413,0.56,0.14172,0.074942,6.33092,0.56,0.10796,0.071402,25,14,14,False,,,,,,33,32,0.9697,0.086315,1.0,6597.0,34.0,1.0,3408.0,45.0,,,
Encode-Decode_Experiment-4-1,2348899,encoding,3.095523,0.571429,0.244381,0.105652,3.304036,0.571429,0.221571,0.105888,21,12,12,False,,,,,,36,36,1.0,0.190197,0.0,6606.0,38.0,1.0,4062.0,51.0,,,
Encode-Decode_Experiment-4-1,2356991,encoding,0.908546,0.259259,0.176222,0.091395,1.826181,0.185185,0.076037,0.059769,27,7,5,False,,,,,,33,31,0.9394,0.136008,1.0,7111.0,40.0,1.0,8700.0,55.0,,,
Encode-Decode_Experiment-4-1,2371471,encoding,2.689722,0.47619,0.20581,0.100524,1.163466,0.142857,0.071952,0.060943,21,10,3,False,,,,,,30,30,1.0,0.375526,1.0,6244.0,42.0,1.0,5281.0,57.0,,,
Encode-Decode_Experiment-4-1,2350974,encoding,2.641426,0.833333,0.470167,0.137489,2.343011,0.611111,0.331278,0.119433,18,15,11,False,,,,,,32,30,0.9375,0.256541,1.0,2861.0,49.0,1.0,5144.0,56.0,,,
Encode-Decode_Experiment-4-1,150472,encoding,0.757854,0.37037,0.293259,0.101749,0.621049,0.148148,0.107889,0.064825,27,10,4,False,,,,,,34,34,1.0,0.068757,1.0,2838.0,54.0,1.0,2955.0,58.0,,,
Encode-Decode_Experiment-4-1,2371471,decoding,,1.0,1.0,0.0,,1.0,1.0,0.0,9,9,9,False,1.0,2.0,1.0,1.0,2.0,20,20,1.0,0.131041,,,,,,,60180.0,1.0,185.0
Encode-Decode_Experiment-4-1,2385851,decoding,1.133255,0.2,0.0652,0.118949,,0.0,0.0,0.0,5,1,0,False,0.5,3.0,0.0,1.0,4.0,15,15,1.0,0.122417,,,,,,,33790.0,2.0,83.0
Encode-Decode_Experiment-4-1,2394020,decoding,-0.014115,0.5,0.503333,0.23615,0.591703,0.166667,0.088833,0.131541,6,3,1,False,0.4,2.0,-0.333333,1.0,3.0,9,9,1.0,0.215475,,,,,,,44416.0,3.0,118.0
Encode-Decode_Experiment-4-1,2369373,decoding,0.390075,0.727273,0.665,0.159643,,0.0,0.0,0.0,11,8,0,False,0.666667,2.0,1.0,1.0,2.0,17,17,1.0,0.158121,,,,,,,40345.0,4.0,122.0
Encode-Decode_Experiment-4-1,2412687,decoding,,0.0,0.0,0.0,,0.0,0.0,0.0,1,0,0,True,0.5,1.0,,,1.0,14,13,0.9286,0.047213,,,,,,,41493.0,5.0,126.0
Encode-Decode_Experiment-4-1,2344622,decoding,0.366981,0.25,0.1705,0.216633,0.404227,0.25,0.1705,0.196672,4,1,1,False,0.5,2.0,0.333333,1.0,3.0,19,18,0.9474,0.189899,,,,,,,36588.0,6.0,81.0
Encode-Decode_Experiment-4-1,2360001,decoding,1.188577,0.363636,0.197818,0.13951,1.14492,0.272727,0.137182,0.118389,11,4,3,False,0.5,3.0,0.666667,0.333333,4.0,16,16,1.0,0.208077,,,,,,,40965.0,7.0,0.0
Encode-Decode_Experiment-4-1,2411268,decoding,1.866431,0.928571,0.664,0.141753,-0.84866,0.214286,0.335286,0.142578,14,13,3,False,1.0,3.0,1.0,0.333333,3.0,20,20,1.0,0.066589,,,,,,,48952.0,8.0,159.0
Encode-Decode_Experiment-4-1,2370664,decoding,,,,,,,,,0,0,0,True,1.0,1.0,,,1.0,9,7,0.7778,0.140115,,,,,,,18507.0,9.0,0.0
Encode-Decode_Experiment-4-1,2347400,decoding,,0.0,0.0,0.0,,0.0,0.0,0.0,5,0,0,False,0.25,1.0,-1.0,1.0,2.0,13,9,0.6923,0.090873,,,,,,,49913.0,10.0,103.0
Encode-Decode_Experiment-4-1,2410309,decoding,0.838723,0.666667,0.502333,0.195933,-1.238563,0.0,0.173333,0.139947,9,6,0,False,0.75,3.0,0.666667,0.333333,4.0,14,14,1.0,0.117017,,,,,,,29422.0,11.0,0.0
Encode-Decode_Experiment-4-1,2374670,decoding,1.748371,0.7,0.3984,0.172503,1.759381,0.7,0.3989,0.17114,10,7,7,False,0.333333,2.0,-0.333333,0.469444,6.0,15,15,1.0,0.197371,,,,,,,71005.0,12.0,191.0
Encode-Decode_Experiment-4-1,2383555,decoding,1.518788,0.666667,0.336167,0.217608,-0.003885,0.166667,0.167333,0.171593,6,4,1,False,0.5,2.0,1.0,1.0,2.0,15,15,1.0,0.131643,,,,,,,53022.0,13.0,115.0
Encode-Decode_Experiment-4-1,2350974,decoding,0.298017,0.4,0.329,0.238241,0.265624,0.4,0.3354,0.243201,5,2,2,False,0.5,2.0,1.0,1.0,2.0,18,18,1.0,0.08706,,,,,,,32983.0,14.0,114.0
Encode-Decode_Experiment-4-1,2367132,decoding,0.007218,0.333333,0.332,0.184721,,0.0,0.0,0.0,9,3,0,False,0.25,1.0,,,1.0,17,17,1.0,0.045624,,,,,,,44274.0,15.0,120.0
Encode-Decode_Experiment-4-1,2408717,decoding,,0.0,0.0,0.0,,0.0,0.0,0.0,3,0,0,False,0.333333,1.0,-1.0,1.0,2.0,13,12,0.9231,0.084928,,,,,,,45680.0,16.0,157.0
Encode-Decode_Experiment-4-1,2379478,decoding,-0.849734,0.25,0.4925,0.285384,-0.865436,0.0,0.1955,0.225898,4,1,0,False,0.4,2.0,0.333333,1.0,3.0,6,5,0.8333,0.446368,,,,,,,27368.0,17.0,0.0
Encode-Decode_Experiment-4-1,2356125,decoding,0.463894,0.666667,0.511667,0.334128,1.050543,0.666667,0.345,0.306191,3,2,2,False,0.5,2.0,-0.333333,1.0,3.0,18,18,1.0,0.057042,,,,,,,5787.0,18.0,0.0
Encode-Decode_Experiment-4-1,2385550,decoding,,1.0,1.0,0.0,,0.0,0.0,0.0,1,1,0,True,1.0,2.0,1.0,1.0,2.0,19,19,1.0,0.875462,,,,,,,42164.0,19.0,111.0
Encode-Decode_Experiment-4-1,2348899,decoding,0.974047,0.714286,0.503,0.216915,0.936571,0.714286,0.505,0.22346,7,5,5,False,1.0,4.0,1.0,0.083333,4.0,22,21,0.9545,0.164233,,,,,,,59960.0,20.0,192.0
Encode-Decode_Experiment-4-1,2409918,decoding,-0.613334,0.375,0.50775,0.21644,0.567573,0.25,0.166875,0.146457,8,3,2,False,0.75,3.0,1.0,0.333333,3.0,13,13,1.0,0.083134,,,,,,,48299.0,21.0,115.0
Encode-Decode_Experiment-4-1,2387122,decoding,,,,,,,,,0,0,0,True,1.0,1.0,,,1.0,21,17,0.8095,0.135519,,,,,,,58112.0,22.0,148.0
Encode-Decode_Experiment-4-1,2362704,decoding,0.496141,0.25,0.1525,0.196517,,0.0,0.0,0.0,4,1,0,False,0.75,3.0,0.333333,0.75,4.0,11,11,1.0,0.127878,,,,,,,27621.0,23.0,61.0
Encode-Decode_Experiment-4-1,150472,decoding,-0.020307,0.333333,0.338,0.229808,0.844775,0.166667,0.070167,0.114232,6,2,1,False,0.333333,2.0,0.2,0.816667,5.0,17,17,1.0,0.148441,,,,,,,51631.0,24.0,142.0
Encode-Decode_Experiment-4-1,2356991,decoding,,0.0,0.0,0.0,,0.0,0.0,0.0,4,0,0,False,0.5,1.0,,,1.0,24,24,1.0,0.061716,,,,,,,70295.0,25.0,164.0
Encode-Decode_Experiment-4-1,2397102,decoding,-0.365647,0.4,0.4964,0.263642,-0.891449,0.0,0.1696,0.190252,5,2,0,False,0.25,1.0,-1.0,1.0,2.0,19,18,0.9474,0.065275,,,,,,,61884.0,26.0,193.0
Encode-Decode_Experiment-4-1,2345035,decoding,,1.0,1.0,0.0,,1.0,1.0,0.0,1,1,1,True,0.5,1.0,-1.0,1.0,2.0,16,16,1.0,0.122809,,,,,,,50913.0,27.0,147.0
Encode-Decode_Experiment-4-1,2347025,decoding,,1.0,1.0,0.0,-1.454914,0.375,0.655,0.192451,8,8,3,False,0.333333,1.0,-1.0,0.333333,3.0,19,17,0.8947,0.1061,,,,,,,51590.0,28.0,148.0
Encode-Decode_Experiment-4-1,2349475,decoding,,0.0,0.0,0.0,,0.0,0.0,0.0,5,0,0,False,0.333333,1.0,-1.0,0.333333,3.0,20,20,1.0,0.027336,,,,,,,76752.0,29.0,289.0
Encode-Decode_Experiment-4-1,2386442,decoding,,,,,,,,,0,0,0,True,1.0,1.0,,,1.0,19,19,1.0,0.055388,,,,,,,40908.0,30.0,161.0
Encode-Decode_Experiment-5-1,2349475,encoding,0.259666,0.35,0.31665,0.128434,0.839933,0.3,0.2091,0.108223,20,7,6,False,,,,,,34,30,0.8824,0.08261,0.0,8172.0,1.0,1.0,3660.0,39.0,,,
Encode-Decode_Experiment-5-1,2360001,encoding,0.208615,0.166667,0.1525,0.067908,0.238547,0.066667,0.056267,0.043597,30,5,2,False,,,,,,37,37,1.0,0.259329,1.0,3813.0,2.0,1.0,6089.0,8.0,,,
Encode-Decode_Experiment-5-1,2348899,encoding,3.898683,0.541667,0.200333,0.087551,4.248546,0.5,0.154542,0.081312,24,13,12,False,,,,,,33,32,0.9697,0.156679,1.0,3413.0,3.0,0.0,9968.0,32.0,,,
Encode-Decode_Experiment-5-1,2410309,encoding,1.450716,0.269231,0.153077,0.080067,2.117161,0.192308,0.069923,0.057806,26,7,5,False,,,,,,33,33,1.0,0.262614,0.0,2908.0,4.0,1.0,4102.0,16.0,,,
Encode-Decode_Experiment-5-1,2345035,encoding,-0.024302,0.258065,0.260419,0.096901,0.766983,0.193548,0.137613,0.072929,31,8,6,False,,,,,,38,33,0.8684,0.185014,1.0,6024.0,5.0,0.0,6124.0,42.0,,,
Encode-Decode_Experiment-5-1,2374670,encoding,2.213996,0.722222,0.43,0.131989,3.294725,0.722222,0.320722,0.121861,18,13,13,False,,,,,,30,29,0.9667,0.227883,0.0,5301.0,6.0,0.0,13294.0,22.0,,,
Encode-Decode_Experiment-5-1,2367132,encoding,3.707482,0.5,0.162818,0.090946,6.674325,0.5,0.075409,0.063616,22,11,11,False,,,,,,35,33,0.9429,0.085645,1.0,4793.0,7.0,1.0,4182.0,44.0,,,
Encode-Decode_Experiment-5-1,150472,encoding,0.451264,0.375,0.327292,0.105722,-1.243585,0.083333,0.198625,0.092709,24,9,2,False,,,,,,34,32,0.9412,0.081712,1.0,3198.0,9.0,1.0,2794.0,47.0,,,
Encode-Decode_Experiment-5-1,2347025,encoding,1.291598,0.8,0.6032,0.152369,1.467062,0.6,0.3956,0.139326,15,12,9,False,,,,,,29,26,0.8966,0.14315,1.0,4566.0,10.0,1.0,3624.0,21.0,,,
Encode-Decode_Experiment-5-1,2344622,encoding,1.391996,0.318182,0.192364,0.090387,2.015678,0.272727,0.112727,0.079378,22,7,6,False,,,,,,33,30,0.9091,0.240572,1.0,3927.0,11.0,1.0,4099.0,57.0,,,
Encode-Decode_Experiment-5-1,2408717,encoding,0.289411,0.24,0.21324,0.092464,0.128955,0.16,0.15008,0.076926,25,6,4,False,,,,,,32,29,0.9062,0.250411,1.0,3377.0,12.0,1.0,4399.0,55.0,,,
Encode-Decode_Experiment-5-1,2356991,encoding,0.348115,0.24,0.2042,0.102839,0.403153,0.16,0.12728,0.08116,25,6,4,False,,,,,,32,31,0.9688,0.148026,0.0,6258.0,13.0,0.0,11878.0,24.0,,,
Encode-Decode_Experiment-5-1,2362704,encoding,0.233212,0.130435,0.112652,0.076251,-0.661339,0.0,0.021478,0.032477,23,3,0,False,,,,,,33,33,1.0,0.170206,1.0,3687.0,14.0,1.0,1893.0,34.0,,,
Encode-Decode_Experiment-5-1,2385851,encoding,1.322082,0.185185,0.102519,0.062528,0.915774,0.111111,0.062815,0.052738,27,5,3,False,,,,,,30,30,1.0,0.134796,1.0,3307.0,15.0,0.0,5379.0,60.0,,,
Encode-Decode_Experiment-5-1,2370664,encoding,1.984518,0.6,0.324467,0.138841,-0.0,0.133333,0.133333,0.097843,15,9,2,False,,,,,,29,29,1.0,0.119727,1.0,2450.0,17.0,1.0,3950.0,45.0,,,
Encode-Decode_Experiment-5-1,2356125,encoding,0.891697,0.333333,0.246417,0.097473,1.328417,0.125,0.055292,0.052475,24,8,3,False,,,,,,32,29,0.9062,0.289429,0.0,11198.0,18.0,1.0,3117.0,50.0,,,
Encode-Decode_Experiment-5-1,2386442,encoding,1.604467,0.631579,0.425474,0.128457,1.590625,0.631579,0.422842,0.131229,19,12,12,False,,,,,,33,33,1.0,0.13122,1.0,7533.0,19.0,1.0,5414.0,43.0,,,
Encode-Decode_Experiment-5-1,2371471,encoding,4.109819,0.611111,0.177778,0.105439,1.549673,0.166667,0.069722,0.062558,18,11,3,False,,,,,,30,30,1.0,0.34825,1.0,10200.0,20.0,1.0,8912.0,51.0,,,
Encode-Decode_Experiment-5-1,2385550,encoding,4.027056,0.545455,0.195455,0.086912,-0.988365,0.0,0.052591,0.05321,22,12,0,False,,,,,,31,28,0.9032,0.273435,1.0,3058.0,23.0,1.0,6850.0,54.0,,,
Encode-Decode_Experiment-5-1,2350974,encoding,2.419643,0.409091,0.183909,0.093064,2.664307,0.363636,0.142273,0.083085,22,9,8,False,,,,,,31,28,0.9032,0.254555,0.0,3514.0,25.0,1.0,3277.0,29.0,,,
Encode-Decode_Experiment-5-1,2369373,encoding,0.938574,0.461538,0.361462,0.106627,-0.768908,0.115385,0.183,0.087937,26,12,3,False,,,,,,33,33,1.0,0.247019,1.0,7750.0,26.0,1.0,3747.0,36.0,,,
Encode-Decode_Experiment-5-1,2409918,encoding,3.512244,0.764706,0.326353,0.124807,1.842019,0.411765,0.213941,0.107395,17,13,7,False,,,,,,32,28,0.875,0.147515,1.0,5272.0,27.0,1.0,4649.0,40.0,,,
Encode-Decode_Experiment-5-1,2411268,encoding,3.167215,0.588235,0.216353,0.117416,3.216424,0.529412,0.178235,0.109182,17,10,9,False,,,,,,31,26,0.8387,0.217167,1.0,5381.0,28.0,0.0,8047.0,41.0,,,
Encode-Decode_Experiment-5-1,2412687,encoding,1.850486,0.526316,0.313105,0.115219,2.707623,0.368421,0.132368,0.087181,19,10,7,False,,,,,,30,27,0.9,0.155201,1.0,5392.0,30.0,1.0,7321.0,35.0,,,
Encode-Decode_Experiment-5-1,2383555,encoding,0.540034,0.190476,0.141762,0.090206,0.57962,0.142857,0.100381,0.073283,21,4,3,False,,,,,,33,29,0.8788,0.171518,0.0,3792.0,31.0,1.0,3054.0,58.0,,,
Encode-Decode_Experiment-5-1,2397102,encoding,2.612768,0.555556,0.250389,0.116798,1.575862,0.277778,0.132,0.092507,18,10,5,False,,,,,,27,27,1.0,0.099939,1.0,4137.0,33.0,1.0,5111.0,53.0,,,
Encode-Decode_Experiment-5-1,2394020,encoding,1.195482,0.761905,0.609095,0.127823,-1.186651,0.095238,0.20819,0.095186,21,16,2,False,,,,,,35,29,0.8286,0.314237,1.0,7965.0,37.0,1.0,3672.0,49.0,,,
Encode-Decode_Experiment-5-1,2379478,encoding,2.125587,0.555556,0.287667,0.126031,1.959561,0.388889,0.190722,0.101128,18,10,7,False,,,,,,31,26,0.8387,0.439666,1.0,2238.0,38.0,1.0,4225.0,48.0,,,
Encode-Decode_Experiment-5-1,2387122,encoding,0.787895,0.565217,0.468957,0.122175,-1.099642,0.130435,0.243783,0.103077,23,13,3,False,,,,,,28,27,0.9643,0.153336,1.0,6753.0,46.0,1.0,4290.0,52.0,,,
Encode-Decode_Experiment-5-1,2347400,encoding,-0.901089,0.076923,0.180231,0.114648,-0.615642,0.076923,0.142769,0.106955,13,1,1,False,,,,,,26,24,0.9231,0.202065,1.0,2878.0,56.0,1.0,5821.0,59.0,,,
Encode-Decode_Experiment-5-1,2347025,decoding,,1.0,1.0,0.0,,1.0,1.0,0.0,1,1,1,True,1.0,2.0,1.0,1.0,2.0,7,6,0.8571,0.119019,,,,,,,101350.0,1.0,235.0
Encode-Decode_Experiment-5-1,2371471,decoding,,1.0,1.0,0.0,,1.0,1.0,0.0,1,1,1,True,1.0,2.0,1.0,1.0,2.0,7,7,1.0,0.087017,,,,,,,112618.0,2.0,387.0
Encode-Decode_Experiment-5-1,2370664,decoding,,,,,,,,,0,0,0,True,1.0,1.0,,,1.0,3,3,1.0,0.167319,,,,,,,110859.0,3.0,296.0
Encode-Decode_Experiment-5-1,2369373,decoding,0.029462,0.666667,0.657333,0.316792,,0.0,0.0,0.0,3,2,0,False,0.666667,2.0,1.0,1.0,2.0,7,7,1.0,0.154891,,,,,,,42578.0,4.0,121.0
Encode-Decode_Experiment-5-1,2386442,decoding,,,,,,,,,0,0,0,True,1.0,1.0,,,1.0,1,1,1.0,0.077636,,,,,,,68421.0,5.0,220.0
Encode-Decode_Experiment-5-1,2374670,decoding,,0.0,0.0,0.0,,0.0,0.0,0.0,1,0,0,True,1.0,2.0,1.0,1.0,2.0,6,6,1.0,0.152816,,,,,,,62125.0,6.0,137.0
Encode-Decode_Experiment-5-1,2410309,decoding,0.467298,0.25,0.15575,0.201691,,0.0,0.0,0.0,4,1,0,False,0.75,3.0,1.0,0.333333,3.0,10,9,0.9,0.151746,,,,,,,52776.0,7.0,96.0
Encode-Decode_Experiment-5-1,2360001,decoding,0.627031,0.5,0.33375,0.265139,,0.0,0.0,0.0,4,2,0,False,0.25,1.0,-1.0,1.0,2.0,6,5,0.8333,0.169165,,,,,,,42092.0,8.0,84.0
Encode-Decode_Experiment-5-1,2350974,decoding,0.002826,0.5,0.49925,0.2654,0.020627,0.5,0.4945,0.266636,4,2,2,False,0.5,2.0,-0.333333,1.0,3.0,9,9,1.0,0.309613,,,,,,,54546.0,9.0,120.0
Encode-Decode_Experiment-5-1,2412687,decoding,,0.0,0.0,0.0,,0.0,0.0,0.0,4,0,0,False,1.0,2.0,1.0,1.0,2.0,11,11,1.0,0.050348,,,,,,,93447.0,11.0,106.0
Encode-Decode_Experiment-5-1,2347400,decoding,,0.0,0.0,0.0,,0.0,0.0,0.0,1,0,0,True,0.5,1.0,,,1.0,8,7,0.875,0.087039,,,,,,,75047.0,12.0,239.0
Encode-Decode_Experiment-5-1,2397102,decoding,0.936103,0.714286,0.496857,0.23227,-1.067424,0.0,0.172571,0.161671,7,5,0,False,0.75,3.0,1.0,0.333333,3.0,15,14,0.9333,0.065797,,,,,,,49814.0,13.0,161.0
Encode-Decode_Experiment-5-1,150472,decoding,-1.307612,0.0,0.3036,0.232179,-0.973573,0.0,0.1976,0.202964,5,0,0,False,0.6,3.0,0.4,0.483333,5.0,8,8,1.0,0.120395,,,,,,,63136.0,14.0,186.0
Encode-Decode_Experiment-5-1,2408717,decoding,,1.0,1.0,0.0,,0.0,0.0,0.0,1,1,0,True,0.5,1.0,,,1.0,6,6,1.0,0.08471,,,,,,,45091.0,15.0,153.0
Encode-Decode_Experiment-5-1,2356991,decoding,-0.758006,0.5,0.69475,0.256924,-1.23395,0.0,0.3345,0.271081,4,2,0,False,1.0,3.0,1.0,0.333333,3.0,13,13,1.0,0.044929,,,,,,,45568.0,16.0,122.0
Encode-Decode_Experiment-5-1,2367132,decoding,0.54018,0.285714,0.194143,0.16952,0.033105,0.142857,0.137857,0.151036,7,2,1,False,0.333333,2.0,0.0,1.0,5.0,13,11,0.8462,0.053855,,,,,,,99258.0,17.0,221.0
Encode-Decode_Experiment-5-1,2409918,decoding,,0.0,0.0,0.0,,0.0,0.0,0.0,2,0,0,False,0.5,1.0,,,1.0,6,6,1.0,0.109382,,,,,,,32011.0,18.0,100.0
Encode-Decode_Experiment-5-1,2411268,decoding,,1.0,1.0,0.0,,1.0,1.0,0.0,1,1,1,True,0.5,1.0,-1.0,1.0,2.0,8,8,1.0,0.091216,,,,,,,46732.0,19.0,108.0
Encode-Decode_Experiment-5-1,2348899,decoding,,1.0,1.0,0.0,,1.0,1.0,0.0,2,2,2,False,1.0,2.0,1.0,1.0,2.0,14,14,1.0,0.112024,,,,,,,55689.0,20.0,159.0
Encode-Decode_Experiment-5-1,2385550,decoding,1.197008,0.666667,0.314333,0.294345,1.129366,0.666667,0.323667,0.30371,3,2,2,False,0.333333,1.0,-1.0,1.0,2.0,13,13,1.0,0.20224,,,,,,,28094.0,21.0,84.0
Encode-Decode_Experiment-5-1,2345035,decoding,,0.0,0.0,0.0,,0.0,0.0,0.0,4,0,0,False,1.0,2.0,1.0,1.0,2.0,14,12,0.8571,0.306193,,,,,,,40197.0,22.0,109.0
Encode-Decode_Experiment-5-1,2387122,decoding,,1.0,1.0,0.0,,0.0,0.0,0.0,3,3,0,False,1.0,2.0,1.0,1.0,2.0,8,7,0.875,0.151963,,,,,,,76710.0,23.0,169.0
Encode-Decode_Experiment-5-1,2362704,decoding,-0.178518,0.428571,0.469571,0.229668,0.04825,0.285714,0.276429,0.192448,7,3,2,False,0.333333,2.0,1.0,1.0,2.0,11,9,0.8182,0.1734,,,,,,,33916.0,24.0,114.0
Encode-Decode_Experiment-5-1,2344622,decoding,1.299565,0.75,0.39975,0.269513,0.928952,0.25,0.1005,0.160934,4,3,1,False,0.2,1.0,-1.0,1.0,2.0,13,8,0.6154,0.141791,,,,,,,41848.0,25.0,107.0
Encode-Decode_Experiment-5-1,2349475,decoding,,0.0,0.0,0.0,,0.0,0.0,0.0,9,0,0,False,0.2,1.0,,,1.0,12,12,1.0,0.040332,,,,,,,68607.0,26.0,166.0
Encode-Decode_Experiment-5-1,2394020,decoding,,1.0,1.0,0.0,,0.0,0.0,0.0,2,2,0,False,1.0,2.0,1.0,1.0,2.0,9,9,1.0,0.170952,,,,,,,42785.0,27.0,102.0
Encode-Decode_Experiment-5-1,2356125,decoding,,0.0,0.0,0.0,,0.0,0.0,0.0,1,0,0,True,0.5,1.0,,,1.0,11,11,1.0,0.134885,,,,,,,67707.0,28.0,114.0
Encode-Decode_Experiment-5-1,2385851,decoding,,0.0,0.0,0.0,,0.0,0.0,0.0,3,0,0,False,0.666667,2.0,0.333333,1.0,3.0,8,8,1.0,0.172552,,,,,,,38561.0,29.0,92.0
Encode-Decode_Experiment-5-1,2383555,decoding,0.489985,0.25,0.17625,0.150515,-0.729921,0.0,0.076125,0.104292,8,2,0,False,0.375,3.0,0.2,0.816667,5.0,12,12,1.0,0.186184,,,,,,,43155.0,30.0,121.0
Encode-Decode_Experiment-6-1,2362704,encoding,-1.309045,0.05,0.171,0.092434,-1.153218,0.0,0.07415,0.064298,20,1,0,False,,,,,,29,29,1.0,0.190956,1.0,3923.0,1.0,1.0,3876.0,54.0,,,
Encode-Decode_Experiment-6-1,2371471,encoding,-0.125714,0.318182,0.332,0.109917,-0.553138,0.136364,0.188909,0.094995,22,7,3,False,,,,,,32,32,1.0,0.45594,1.0,8493.0,2.0,1.0,10256.0,4.0,,,
Encode-Decode_Experiment-6-1,2360001,encoding,-0.16576,0.16,0.17324,0.079874,1.026467,0.12,0.06352,0.055024,25,4,3,False,,,,,,32,31,0.9688,0.271626,1.0,8018.0,3.0,1.0,6842.0,36.0,,,
Encode-Decode_Experiment-6-1,2383555,encoding,0.934048,0.185185,0.120889,0.068836,1.313543,0.148148,0.074481,0.056082,27,5,4,False,,,,,,34,33,0.9706,0.20003,1.0,5774.0,5.0,1.0,4611.0,50.0,,,
Encode-Decode_Experiment-6-1,2347025,encoding,1.826539,0.7,0.46505,0.128631,0.107868,0.3,0.288,0.111247,20,14,6,False,,,,,,33,33,1.0,0.121724,1.0,2759.0,6.0,1.0,4820.0,56.0,,,
Encode-Decode_Experiment-6-1,2367132,encoding,5.049538,0.888889,0.267,0.123158,4.650896,0.722222,0.198944,0.112511,18,16,13,False,,,,,,33,32,0.9697,0.115855,1.0,2984.0,7.0,1.0,4237.0,27.0,,,
Encode-Decode_Experiment-6-1,2349475,encoding,3.096367,0.3125,0.082,0.074442,3.039074,0.25,0.056,0.063835,16,5,4,False,,,,,,34,29,0.8529,0.08036,1.0,10831.0,8.0,1.0,6520.0,40.0,,,
Encode-Decode_Experiment-6-1,2344622,encoding,0.912294,0.5,0.383875,0.127289,0.033181,0.25,0.246063,0.118668,16,8,4,False,,,,,,37,31,0.8378,0.173965,1.0,3798.0,9.0,1.0,5496.0,55.0,,,
Encode-Decode_Experiment-6-1,2374670,encoding,1.396636,0.521739,0.360957,0.115121,2.228074,0.521739,0.284652,0.106409,23,12,12,False,,,,,,32,31,0.9688,0.198687,1.0,5062.0,10.0,0.0,11085.0,30.0,,,
Encode-Decode_Experiment-6-1,2370664,encoding,3.571791,0.722222,0.289778,0.121072,1.506296,0.277778,0.143944,0.088849,18,13,5,False,,,,,,35,35,1.0,0.163746,1.0,5787.0,11.0,1.0,4142.0,34.0,,,
Encode-Decode_Experiment-6-1,2385851,encoding,-1.28111,0.08,0.18772,0.084083,-1.38319,0.04,0.14732,0.077589,25,2,1,False,,,,,,32,32,1.0,0.19194,1.0,4803.0,12.0,0.0,10605.0,29.0,,,
Encode-Decode_Experiment-6-1,2385550,encoding,2.059458,0.26087,0.112783,0.071906,-0.26398,0.043478,0.056609,0.04974,23,6,1,False,,,,,,29,29,1.0,0.251104,1.0,3899.0,13.0,1.0,9415.0,22.0,,,
Encode-Decode_Experiment-6-1,2348899,encoding,4.616014,0.75,0.285083,0.100718,3.246498,0.583333,0.251792,0.102123,24,18,14,False,,,,,,35,35,1.0,0.182372,0.0,11975.0,14.0,1.0,5300.0,57.0,,,
Encode-Decode_Experiment-6-1,2412687,encoding,0.966807,0.466667,0.329667,0.141704,0.929796,0.466667,0.336333,0.140174,15,7,7,False,,,,,,30,27,0.9,0.16231,1.0,4024.0,15.0,0.0,11397.0,45.0,,,
Encode-Decode_Experiment-6-1,2410309,encoding,0.437293,0.315789,0.265105,0.115905,0.908452,0.157895,0.088526,0.076359,19,6,3,False,,,,,,28,28,1.0,0.247946,0.0,8622.0,16.0,1.0,4545.0,35.0,,,
Encode-Decode_Experiment-6-1,2369373,encoding,0.856473,0.478261,0.381652,0.112798,-0.294537,0.043478,0.060087,0.056389,23,11,1,False,,,,,,31,30,0.9677,0.247005,1.0,3541.0,17.0,1.0,9842.0,19.0,,,
Encode-Decode_Experiment-6-1,2379478,encoding,1.855911,0.428571,0.223048,0.11074,1.065372,0.190476,0.111714,0.073929,21,9,4,False,,,,,,32,29,0.9062,0.400067,1.0,6503.0,18.0,1.0,4221.0,43.0,,,
Encode-Decode_Experiment-6-1,150472,encoding,0.148726,0.4,0.3824,0.118338,-0.833412,0.12,0.2018,0.098151,25,10,3,False,,,,,,34,34,1.0,0.091321,1.0,4454.0,20.0,1.0,3221.0,32.0,,,
Encode-Decode_Experiment-6-1,2347400,encoding,2.118652,0.421053,0.203158,0.102846,2.206127,0.210526,0.069263,0.064032,19,8,4,False,,,,,,33,29,0.8788,0.192583,1.0,3524.0,21.0,1.0,2808.0,48.0,,,
Encode-Decode_Experiment-6-1,2345035,encoding,-0.137722,0.214286,0.22625,0.086873,-0.845353,0.071429,0.132964,0.072793,28,6,2,False,,,,,,36,34,0.9444,0.245816,1.0,10934.0,23.0,1.0,4688.0,59.0,,,
Encode-Decode_Experiment-6-1,2356125,encoding,1.966251,0.529412,0.289882,0.12182,1.554132,0.235294,0.107059,0.082512,17,9,4,False,,,,,,35,28,0.8,0.322228,1.0,5057.0,24.0,1.0,4733.0,60.0,,,
Encode-Decode_Experiment-6-1,2387122,encoding,-0.655078,0.363636,0.448455,0.129478,-1.044151,0.136364,0.253545,0.112227,22,8,3,False,,,,,,29,27,0.931,0.155136,1.0,5461.0,25.0,1.0,9764.0,28.0,,,
Encode-Decode_Experiment-6-1,2397102,encoding,2.892702,0.56,0.27656,0.097985,2.223333,0.32,0.13988,0.081013,25,14,8,False,,,,,,36,36,1.0,0.127659,1.0,3137.0,26.0,1.0,4171.0,41.0,,,
Encode-Decode_Experiment-6-1,2408717,encoding,0.282677,0.380952,0.348048,0.116404,-0.082811,0.142857,0.149905,0.085105,21,8,3,False,,,,,,35,24,0.6857,0.206332,1.0,4081.0,31.0,1.0,4866.0,51.0,,,
Encode-Decode_Experiment-6-1,2411268,encoding,2.651614,0.545455,0.253,0.110293,3.541189,0.5,0.171318,0.092817,22,12,11,False,,,,,,35,34,0.9714,0.307716,1.0,4557.0,33.0,1.0,7083.0,47.0,,,
Encode-Decode_Experiment-6-1,2394020,encoding,1.280156,0.666667,0.476267,0.148732,-1.115611,0.0,0.0836,0.074937,15,10,0,False,,,,,,31,27,0.871,0.29524,1.0,4951.0,37.0,1.0,3980.0,42.0,,,
Encode-Decode_Experiment-6-1,2409918,encoding,3.154715,0.590909,0.25,0.108063,2.815255,0.363636,0.140364,0.079308,22,13,8,False,,,,,,37,30,0.8108,0.158141,1.0,6601.0,38.0,1.0,14236.0,46.0,,,
Encode-Decode_Experiment-6-1,2350974,encoding,0.27817,0.222222,0.193444,0.103454,0.322138,0.166667,0.137889,0.089334,18,4,3,False,,,,,,34,25,0.7353,0.194641,1.0,5826.0,39.0,1.0,5163.0,44.0,,,
Encode-Decode_Experiment-6-1,2356991,encoding,1.333765,0.310345,0.195724,0.085938,1.104845,0.206897,0.127034,0.072283,29,9,6,False,,,,,,37,37,1.0,0.148127,1.0,10269.0,49.0,1.0,9255.0,52.0,,,
Encode-Decode_Experiment-6-1,2386442,encoding,2.49643,0.684211,0.359368,0.130123,2.396599,0.526316,0.249421,0.115537,19,13,10,False,,,,,,36,36,1.0,0.136083,1.0,5637.0,53.0,1.0,8392.0,58.0,,,
Encode-Decode_Experiment-6-1,2385851,decoding,0.637801,0.375,0.268,0.167764,0.951833,0.25,0.128,0.128174,8,3,2,False,0.5,3.0,0.2,0.816667,5.0,16,16,1.0,0.18237,,,,,,,47205.0,1.0,55.0
Encode-Decode_Experiment-6-1,2348899,decoding,,1.0,1.0,0.0,,1.0,1.0,0.0,5,5,5,False,1.0,2.0,1.0,1.0,2.0,10,10,1.0,0.189992,,,,,,,43181.0,2.0,114.0
Encode-Decode_Experiment-6-1,2347025,decoding,,1.0,1.0,0.0,-0.435646,0.5,0.661,0.369566,2,2,1,False,1.0,3.0,1.0,0.333333,3.0,7,6,0.8571,0.102107,,,,,,,33336.0,3.0,83.0
Encode-Decode_Experiment-6-1,2379478,decoding,-0.019527,0.333333,0.339333,0.30726,0.030675,0.333333,0.324,0.304269,3,1,1,False,0.333333,1.0,-1.0,1.0,2.0,9,9,1.0,0.731697,,,,,,,35508.0,4.0,100.0
Encode-Decode_Experiment-6-1,2356125,decoding,,,,,,,,,0,0,0,True,1.0,1.0,,,1.0,11,11,1.0,0.096,,,,,,,85753.0,5.0,185.0
Encode-Decode_Experiment-6-1,2412687,decoding,,0.0,0.0,0.0,,0.0,0.0,0.0,1,0,0,True,0.5,1.0,,,1.0,12,11,0.9167,0.024125,,,,,,,56652.0,6.0,17.0
Encode-Decode_Experiment-6-1,2409918,decoding,-2.025188,0.2,0.6774,0.235731,-1.422227,0.0,0.3316,0.233155,5,1,0,False,1.0,3.0,1.0,0.333333,3.0,15,14,0.9333,0.063637,,,,,,,47029.0,7.0,124.0
Encode-Decode_Experiment-6-1,2410309,decoding,-0.182893,0.625,0.658875,0.185218,0.202808,0.375,0.335,0.197231,8,5,3,False,0.666667,2.0,0.333333,1.0,3.0,12,12,1.0,0.153749,,,,,,,40828.0,8.0,107.0
Encode-Decode_Experiment-6-1,2362704,decoding,,0.0,0.0,0.0,,0.0,0.0,0.0,7,0,0,False,0.666667,2.0,1.0,1.0,2.0,12,12,1.0,0.122563,,,,,,,28469.0,9.0,63.0
Encode-Decode_Experiment-6-1,2360001,decoding,1.664121,0.461538,0.250538,0.126794,2.444084,0.384615,0.140231,0.09999,13,6,5,False,0.5,4.0,-0.333333,0.381349,7.0,15,15,1.0,0.25415,,,,,,,44066.0,10.0,85.0
Encode-Decode_Experiment-6-1,150472,decoding,0.004845,0.166667,0.165833,0.171996,,0.0,0.0,0.0,6,1,0,False,0.5,2.0,0.0,1.0,4.0,11,11,1.0,0.143513,,,,,,,32969.0,11.0,88.0
Encode-Decode_Experiment-6-1,2344622,decoding,,,,,,,,,0,0,0,True,1.0,1.0,,,1.0,11,11,1.0,0.184339,,,,,,,25836.0,12.0,68.0
Encode-Decode_Experiment-6-1,2345035,decoding,-0.662938,0.1,0.1945,0.142547,-0.006514,0.1,0.1007,0.107469,10,1,1,False,0.4,2.0,0.0,1.0,4.0,17,15,0.8824,0.222534,,,,,,,45787.0,13.0,161.0
Encode-Decode_Experiment-6-1,2383555,decoding,-1.159367,0.0,0.196571,0.169551,-0.787815,0.0,0.098286,0.124757,7,0,0,False,0.6,3.0,0.666667,0.333333,4.0,12,12,1.0,0.127221,,,,,,,33645.0,14.0,95.0
Encode-Decode_Experiment-6-1,2408717,decoding,-0.55301,0.4,0.5043,0.188604,-1.363012,0.1,0.3404,0.176374,10,4,1,False,0.5,2.0,-0.333333,1.0,3.0,16,16,1.0,0.187457,,,,,,,32628.0,15.0,83.0
Encode-Decode_Experiment-6-1,2371471,decoding,1.411844,1.0,0.6666,0.236145,-0.534538,0.2,0.3254,0.234595,5,5,1,False,0.666667,2.0,1.0,1.0,2.0,14,13,0.9286,0.193007,,,,,,,45165.0,16.0,120.0
Encode-Decode_Experiment-6-1,2367132,decoding,,,,,,,,,0,0,0,True,1.0,1.0,,,1.0,11,11,1.0,0.040404,,,,,,,31840.0,17.0,102.0
Encode-Decode_Experiment-6-1,2394020,decoding,,1.0,1.0,0.0,,0.0,0.0,0.0,1,1,0,True,1.0,2.0,1.0,1.0,2.0,8,8,1.0,0.110969,,,,,,,37217.0,18.0,76.0
Encode-Decode_Experiment-6-1,2349475,decoding,,0.0,0.0,0.0,,0.0,0.0,0.0,3,0,0,False,0.333333,1.0,,,1.0,11,11,1.0,0.066824,,,,,,,27434.0,19.0,68.0
Encode-Decode_Experiment-6-1,2369373,decoding,,,,,,,,,0,0,0,True,1.0,1.0,,,1.0,11,11,1.0,0.084724,,,,,,,41891.0,20.0,92.0
Encode-Decode_Experiment-6-1,2347400,decoding,,0.0,0.0,0.0,,0.0,0.0,0.0,1,0,0,True,0.0,0.0,,,0.0,7,7,1.0,0.029833,,,,,,,20320.0,21.0,38.0
Encode-Decode_Experiment-6-1,2370664,decoding,,,,,,,,,0,0,0,True,1.0,1.0,,,1.0,8,7,0.875,0.116474,,,,,,,32453.0,22.0,46.0
Encode-Decode_Experiment-6-1,2350974,decoding,0.644475,0.5,0.3315,0.261453,0.672057,0.5,0.3235,0.262627,4,2,2,False,0.666667,2.0,0.333333,1.0,3.0,10,10,1.0,0.296096,,,,,,,47620.0,23.0,77.0
Encode-Decode_Experiment-6-1,2397102,decoding,,0.0,0.0,0.0,,0.0,0.0,0.0,2,0,0,False,1.0,2.0,1.0,1.0,2.0,16,16,1.0,0.056933,,,,,,,33845.0,24.0,102.0
Encode-Decode_Experiment-6-1,2374670,decoding,,0.0,0.0,0.0,,0.0,0.0,0.0,3,0,0,False,1.0,2.0,1.0,1.0,2.0,14,12,0.8571,0.148711,,,,,,,40420.0,25.0,64.0
Encode-Decode_Experiment-6-1,2387122,decoding,,1.0,1.0,0.0,,0.0,0.0,0.0,3,3,0,False,0.5,1.0,-1.0,1.0,2.0,9,7,0.7778,0.113202,,,,,,,54180.0,26.0,134.0
Encode-Decode_Experiment-6-1,2385550,decoding,,1.0,1.0,0.0,-0.645224,0.5,0.674,0.269674,4,4,2,False,0.333333,1.0,,,1.0,11,11,1.0,0.211528,,,,,,,45975.0,27.0,113.0
Encode-Decode_Experiment-6-1,2411268,decoding,,0.0,0.0,0.0,,0.0,0.0,0.0,1,0,0,True,0.5,1.0,-1.0,1.0,2.0,12,12,1.0,0.068618,,,,,,,29480.0,28.0,63.0
Encode-Decode_Experiment-6-1,2386442,decoding,0.727411,0.666667,0.497167,0.233018,0.989571,0.5,0.295667,0.206487,6,4,3,False,0.6,3.0,1.0,0.333333,3.0,16,16,1.0,0.073559,,,,,,,35751.0,29.0,102.0
Encode-Decode_Experiment-6-1,2356991,decoding,,0.0,0.0,0.0,,0.0,0.0,0.0,2,0,0,False,1.0,2.0,1.0,1.0,2.0,10,10,1.0,0.094366,,,,,,,49578.0,30.0,96.0
Encode-Decode_Experiment-7-1,2412687,encoding,2.288554,0.615385,0.287462,0.143288,3.046265,0.384615,0.093077,0.095704,13,8,5,False,,,,,,28,25,0.8929,0.119326,1.0,5173.0,1.0,1.0,5243.0,20.0,,,
Encode-Decode_Experiment-7-1,2370664,encoding,-0.184854,0.3,0.3315,0.170405,-0.547579,0.1,0.1765,0.139706,10,3,1,False,,,,,,21,21,1.0,0.15048,1.0,3231.0,2.0,1.0,24878.0,24.0,,,
Encode-Decode_Experiment-7-1,2348899,encoding,4.344444,0.65,0.19185,0.105457,4.245341,0.65,0.19795,0.106481,20,13,13,False,,,,,,31,31,1.0,0.151387,1.0,3589.0,3.0,1.0,7519.0,47.0,,,
Encode-Decode_Experiment-7-1,2374670,encoding,1.782472,0.52381,0.31081,0.119497,1.272177,0.285714,0.17019,0.090808,21,11,6,False,,,,,,37,33,0.8919,0.238978,1.0,6005.0,4.0,1.0,6995.0,55.0,,,
Encode-Decode_Experiment-7-1,2349475,encoding,0.748411,0.2,0.137,0.084178,1.213572,0.2,0.10925,0.074779,20,4,4,False,,,,,,36,28,0.7778,0.074432,0.0,6764.0,5.0,1.0,3692.0,60.0,,,
Encode-Decode_Experiment-7-1,2385851,encoding,-0.621581,0.086957,0.135348,0.077852,-0.295882,0.086957,0.107087,0.068035,23,2,2,False,,,,,,34,28,0.8235,0.19349,1.0,9372.0,6.0,1.0,2584.0,50.0,,,
Encode-Decode_Experiment-7-1,2345035,encoding,0.932135,0.344828,0.253517,0.097958,2.564691,0.275862,0.107172,0.065774,29,10,8,False,,,,,,37,35,0.9459,0.201809,1.0,6958.0,7.0,1.0,6198.0,23.0,,,
Encode-Decode_Experiment-7-1,150472,encoding,1.41076,0.52381,0.357238,0.118072,0.080443,0.142857,0.135762,0.088202,21,11,3,False,,,,,,30,28,0.9333,0.096645,1.0,3567.0,8.0,1.0,2625.0,51.0,,,
Encode-Decode_Experiment-7-1,2397102,encoding,2.382196,0.448276,0.232276,0.090673,2.973796,0.344828,0.132241,0.071486,29,13,10,False,,,,,,39,37,0.9487,0.127476,1.0,8817.0,9.0,1.0,2618.0,14.0,,,
Encode-Decode_Experiment-7-1,2367132,encoding,3.855499,0.391304,0.115304,0.071586,4.640196,0.347826,0.066609,0.060605,23,9,8,False,,,,,,36,31,0.8611,0.101701,0.0,7599.0,10.0,1.0,2988.0,59.0,,,
Encode-Decode_Experiment-7-1,2347400,encoding,0.984843,0.181818,0.105364,0.077631,0.99418,0.181818,0.106136,0.076125,22,4,4,False,,,,,,33,33,1.0,0.215651,1.0,2951.0,11.0,1.0,4305.0,30.0,,,
Encode-Decode_Experiment-7-1,2356125,encoding,1.173365,0.296296,0.199481,0.08251,1.729532,0.222222,0.109667,0.065079,27,8,6,False,,,,,,37,34,0.9189,0.227187,0.0,10610.0,12.0,1.0,3552.0,13.0,,,
Encode-Decode_Experiment-7-1,2369373,encoding,0.183473,0.315789,0.294158,0.1179,0.889763,0.105263,0.054263,0.057319,19,6,2,False,,,,,,30,30,1.0,0.241064,1.0,3545.0,15.0,0.0,4330.0,48.0,,,
Encode-Decode_Experiment-7-1,2383555,encoding,0.749032,0.222222,0.160926,0.081834,-0.735721,0.074074,0.126815,0.071686,27,6,2,False,,,,,,37,29,0.7838,0.133659,1.0,9011.0,16.0,1.0,2880.0,26.0,,,
Encode-Decode_Experiment-7-1,2347025,encoding,-0.06041,0.409091,0.4165,0.122647,-1.594998,0.090909,0.250864,0.100285,22,9,2,False,,,,,,43,42,0.9767,0.091408,1.0,2657.0,17.0,1.0,5040.0,22.0,,,
Encode-Decode_Experiment-7-1,2409918,encoding,2.332896,0.52381,0.279048,0.104918,1.390204,0.285714,0.164095,0.087483,21,11,6,False,,,,,,36,36,1.0,0.165495,1.0,5909.0,18.0,1.0,6423.0,52.0,,,
Encode-Decode_Experiment-7-1,2360001,encoding,-1.217876,0.043478,0.138739,0.078219,-0.324731,0.043478,0.06113,0.054359,23,1,1,False,,,,,,35,34,0.9714,0.326806,1.0,3920.0,19.0,1.0,3484.0,49.0,,,
Encode-Decode_Experiment-7-1,2386442,encoding,4.627566,0.913043,0.36,0.119511,4.987966,0.826087,0.277522,0.109978,23,21,19,False,,,,,,35,35,1.0,0.148875,1.0,8992.0,21.0,1.0,4326.0,45.0,,,
Encode-Decode_Experiment-7-1,2371471,encoding,1.745154,0.458333,0.284875,0.099394,0.462466,0.166667,0.132542,0.073789,24,11,4,False,,,,,,28,28,1.0,0.354357,0.0,17075.0,25.0,0.0,8763.0,54.0,,,
Encode-Decode_Experiment-7-1,2362704,encoding,-0.165852,0.095238,0.108048,0.077234,0.597545,0.095238,0.061952,0.055704,21,2,2,False,,,,,,27,25,0.9259,0.179319,1.0,2188.0,27.0,1.0,3754.0,41.0,,,
Encode-Decode_Experiment-7-1,2356991,encoding,2.005123,0.322581,0.165097,0.078541,1.600837,0.16129,0.075065,0.053863,31,10,5,False,,,,,,38,36,0.9474,0.177353,1.0,8021.0,28.0,1.0,7451.0,43.0,,,
Encode-Decode_Experiment-7-1,2350974,encoding,3.169868,0.48,0.20048,0.08818,3.386176,0.44,0.16244,0.081969,25,12,11,False,,,,,,36,33,0.9167,0.264149,1.0,6452.0,29.0,1.0,3744.0,57.0,,,
Encode-Decode_Experiment-7-1,2411268,encoding,1.062827,0.473684,0.341737,0.124148,0.261892,0.315789,0.28479,0.118369,19,9,6,False,,,,,,39,36,0.9231,0.173866,1.0,4445.0,31.0,1.0,3171.0,42.0,,,
Encode-Decode_Experiment-7-1,2379478,encoding,2.159423,0.555556,0.285611,0.125008,0.857453,0.222222,0.145,0.09006,18,10,4,False,,,,,,28,23,0.8214,0.490175,1.0,4458.0,32.0,1.0,2669.0,34.0,,,
Encode-Decode_Experiment-7-1,2387122,encoding,2.967508,0.826087,0.439609,0.130237,1.898518,0.347826,0.172435,0.092383,23,19,8,False,,,,,,32,29,0.9062,0.144433,1.0,3023.0,33.0,1.0,8227.0,39.0,,,
Encode-Decode_Experiment-7-1,2344622,encoding,0.271614,0.15,0.12965,0.074922,-1.278616,0.0,0.0912,0.071327,20,3,0,False,,,,,,33,28,0.8485,0.198161,1.0,2659.0,35.0,1.0,3403.0,38.0,,,
Encode-Decode_Experiment-7-1,2408717,encoding,-1.207143,0.055556,0.183889,0.106312,-0.597033,0.055556,0.105722,0.084027,18,1,1,False,,,,,,28,20,0.7143,0.233471,1.0,2304.0,36.0,1.0,7033.0,46.0,,,
Encode-Decode_Experiment-7-1,2394020,encoding,0.604723,0.611111,0.529444,0.135048,-1.365737,0.055556,0.195778,0.102671,18,11,1,False,,,,,,31,26,0.8387,0.247806,0.0,4028.0,37.0,0.0,4262.0,53.0,,,
Encode-Decode_Experiment-7-1,2410309,encoding,-0.041977,0.173913,0.177956,0.096325,0.245724,0.130435,0.111,0.079092,23,4,3,False,,,,,,29,27,0.931,0.25357,1.0,2954.0,40.0,0.0,3500.0,56.0,,,
Encode-Decode_Experiment-7-1,2385550,encoding,2.376866,0.5,0.287192,0.089533,-1.353456,0.038462,0.143154,0.077352,26,13,1,False,,,,,,40,38,0.95,0.202622,1.0,2464.0,44.0,1.0,4954.0,58.0,,,
Encode-Decode_Experiment-7-1,2347400,decoding,-0.537993,0.076923,0.134154,0.106378,-0.499543,0.076923,0.129,0.104249,13,1,1,False,0.333333,2.0,1.0,1.0,2.0,22,21,0.9545,0.124912,,,,,,,33698.0,1.0,39.0
Encode-Decode_Experiment-7-1,2410309,decoding,,0.0,0.0,0.0,,0.0,0.0,0.0,2,0,0,False,0.0,0.0,,,0.0,15,15,1.0,0.123614,,,,,,,28624.0,2.0,75.0
Encode-Decode_Experiment-7-1,2370664,decoding,,0.0,0.0,0.0,,0.0,0.0,0.0,2,0,0,False,0.5,1.0,,,1.0,8,8,1.0,0.155909,,,,,,,18695.0,3.0,30.0
Encode-Decode_Experiment-7-1,2345035,decoding,0.923372,0.384615,0.258538,0.13654,0.132466,0.076923,0.067,0.074911,13,5,1,False,0.5,4.0,0.6,0.136111,6.0,17,16,0.9412,0.257736,,,,,,,10709.0,4.0,27.0
Encode-Decode_Experiment-7-1,2412687,decoding,,0.0,0.0,0.0,,0.0,0.0,0.0,1,0,0,True,1.0,2.0,1.0,1.0,2.0,12,12,1.0,0.053315,,,,,,,29290.0,5.0,52.0
Encode-Decode_Experiment-7-1,2349475,decoding,-0.827606,0.0,0.16725,0.202089,,0.0,0.0,0.0,4,0,0,False,0.75,3.0,1.0,0.333333,3.0,9,9,1.0,0.081452,,,,,,,25719.0,6.0,66.0
Encode-Decode_Experiment-7-1,2374670,decoding,-0.550838,0.4,0.5078,0.195702,0.013212,0.4,0.3977,0.174082,10,4,4,False,0.6,3.0,0.0,1.0,5.0,13,13,1.0,0.202547,,,,,,,26485.0,7.0,41.0
Encode-Decode_Experiment-7-1,2371471,decoding,2.062537,0.888889,0.502444,0.187364,2.302602,0.777778,0.395889,0.165851,9,8,7,False,0.4,2.0,-0.333333,1.0,3.0,15,13,0.8667,0.179959,,,,,,,34403.0,8.0,79.0
Encode-Decode_Experiment-7-1,2348899,decoding,-0.025828,0.333333,0.341333,0.309735,,0.0,0.0,0.0,3,1,0,False,0.666667,2.0,1.0,1.0,2.0,11,11,1.0,0.132255,,,,,,,48403.0,9.0,137.0
Encode-Decode_Experiment-7-1,2369373,decoding,1.498476,1.0,0.669167,0.22078,,0.0,0.0,0.0,6,6,0,False,0.666667,2.0,0.333333,1.0,3.0,11,11,1.0,0.209851,,,,,,,46020.0,10.0,56.0
Encode-Decode_Experiment-7-1,2344622,decoding,-0.780845,0.5,0.669667,0.217286,,0.0,0.0,0.0,6,3,0,False,1.0,3.0,1.0,0.333333,3.0,11,10,0.9091,0.122471,,,,,,,39146.0,11.0,90.0
Encode-Decode_Experiment-7-1,2385851,decoding,,0.0,0.0,0.0,,0.0,0.0,0.0,4,0,0,False,0.25,1.0,-1.0,0.333333,3.0,6,6,1.0,0.229958,,,,,,,40933.0,12.0,56.0
Encode-Decode_Experiment-7-1,2383555,decoding,-0.793201,0.0,0.1595,0.201084,,0.0,0.0,0.0,4,0,0,False,0.5,2.0,1.0,1.0,2.0,6,6,1.0,0.178851,,,,,,,48666.0,13.0,115.0
Encode-Decode_Experiment-7-1,2385550,decoding,-0.007466,0.333333,0.335667,0.312508,0.762362,0.333333,0.160667,0.226489,3,1,1,False,0.5,2.0,0.333333,1.0,3.0,5,5,1.0,0.249387,,,,,,,49032.0,14.0,132.0
Encode-Decode_Experiment-7-1,2362704,decoding,,0.0,0.0,0.0,,0.0,0.0,0.0,4,0,0,False,0.5,2.0,1.0,1.0,2.0,12,10,0.8333,0.193286,,,,,,,14393.0,15.0,24.0
Encode-Decode_Experiment-7-1,2347025,decoding,,1.0,1.0,0.0,-0.459827,0.5,0.672,0.374053,2,2,1,False,0.666667,2.0,-0.333333,1.0,3.0,4,3,0.75,0.1221,,,,,,,54514.0,16.0,89.0
Encode-Decode_Experiment-7-1,2386442,decoding,,0.0,0.0,0.0,,0.0,0.0,0.0,2,0,0,False,1.0,2.0,1.0,1.0,2.0,4,4,1.0,0.066974,,,,,,,54175.0,17.0,168.0
Encode-Decode_Experiment-7-1,2360001,decoding,0.331708,0.375,0.31125,0.192187,0.297059,0.25,0.202125,0.161163,8,3,2,False,0.6,3.0,0.333333,0.75,4.0,12,12,1.0,0.117727,,,,,,,22218.0,18.0,65.0
Encode-Decode_Experiment-7-1,2394020,decoding,0.076489,0.5,0.4795,0.268011,-0.790641,0.0,0.16225,0.205213,4,2,0,False,0.5,2.0,1.0,1.0,2.0,5,5,1.0,0.329782,,,,,,,31459.0,19.0,61.0
Encode-Decode_Experiment-7-1,2397102,decoding,0.012053,0.333333,0.329667,0.304207,,0.0,0.0,0.0,3,1,0,False,0.666667,2.0,-0.333333,1.0,3.0,4,4,1.0,0.053164,,,,,,,32754.0,20.0,95.0
Encode-Decode_Experiment-7-1,2387122,decoding,0.004738,0.6,0.5988,0.253295,-0.429208,0.2,0.302,0.237647,5,3,1,False,0.6,3.0,0.0,1.0,4.0,9,7,0.7778,0.092788,,,,,,,45133.0,21.0,124.0
Encode-Decode_Experiment-7-1,2379478,decoding,-0.828673,0.0,0.17525,0.211483,,0.0,0.0,0.0,4,0,0,False,0.25,1.0,,,1.0,5,5,1.0,0.47059,,,,,,,20090.0,22.0,0.0
Encode-Decode_Experiment-7-1,2408717,decoding,,0.0,0.0,0.0,,0.0,0.0,0.0,2,0,0,False,1.0,2.0,1.0,1.0,2.0,10,9,0.9,0.098073,,,,,,,29424.0,23.0,81.0
Encode-Decode_Experiment-7-1,2409918,decoding,1.925675,0.8,0.3342,0.241889,1.275686,0.4,0.165,0.184215,5,4,2,False,0.75,3.0,0.333333,0.75,4.0,7,7,1.0,0.095537,,,,,,,68377.0,24.0,94.0
Encode-Decode_Experiment-7-1,150472,decoding,,,,,,,,,0,0,0,True,1.0,1.0,,,1.0,1,1,1.0,0.243138,,,,,,,29683.0,25.0,54.0
Encode-Decode_Experiment-7-1,2350974,decoding,0.012471,0.5,0.49625,0.300705,0.011031,0.5,0.49675,0.294622,4,2,2,False,0.75,3.0,0.666667,0.333333,4.0,10,10,1.0,0.140316,,,,,,,31058.0,26.0,1.0
Encode-Decode_Experiment-7-1,2356125,decoding,-0.696795,0.0,0.156333,0.224361,,0.0,0.0,0.0,3,0,0,False,0.5,2.0,0.333333,1.0,3.0,7,7,1.0,0.111202,,,,,,,8730.0,27.0,0.0
Encode-Decode_Experiment-7-1,2411268,decoding,,0.0,0.0,0.0,,0.0,0.0,0.0,5,0,0,False,0.5,1.0,,,1.0,10,10,1.0,0.068153,,,,,,,59774.0,28.0,119.0
Encode-Decode_Experiment-7-1,2367132,decoding,,0.0,0.0,0.0,,0.0,0.0,0.0,3,0,0,False,0.666667,2.0,1.0,1.0,2.0,11,11,1.0,0.046373,,,,,,,46137.0,29.0,115.0
Encode-Decode_Experiment-7-1,2356991,decoding,,,,,,,,,0,0,0,True,1.0,1.0,,,1.0,10,9,0.9,0.077921,,,,,,,70365.0,30.0,126.0
Encode-Decode_Experiment-8-1,2379478,encoding,4.63285,0.615385,0.200885,0.08947,3.552256,0.346154,0.110192,0.066426,26,16,9,False,,,,,,36,33,0.9167,0.425175,1.0,2404.0,1.0,1.0,3666.0,25.0,,,
Encode-Decode_Experiment-8-1,2412687,encoding,1.034705,0.533333,0.383533,0.144776,1.270628,0.4,0.239133,0.126604,15,8,6,False,,,,,,32,27,0.8438,0.166302,1.0,5324.0,2.0,0.0,3637.0,32.0,,,
Encode-Decode_Experiment-8-1,2387122,encoding,1.562034,0.37037,0.22737,0.091547,1.593014,0.111111,0.043556,0.042407,27,10,3,False,,,,,,36,34,0.9444,0.141841,1.0,3095.0,3.0,1.0,5629.0,37.0,,,
Encode-Decode_Experiment-8-1,2356125,encoding,-0.631323,0.193548,0.247226,0.085024,-1.301204,0.0,0.063419,0.048739,31,6,0,False,,,,,,37,36,0.973,0.242599,0.0,4803.0,4.0,1.0,3667.0,48.0,,,
Encode-Decode_Experiment-8-1,2369373,encoding,1.520159,0.62963,0.454889,0.114949,0.171343,0.148148,0.135074,0.076303,27,17,4,False,,,,,,34,33,0.9706,0.255906,1.0,3835.0,5.0,1.0,3211.0,40.0,,,
Encode-Decode_Experiment-8-1,2386442,encoding,1.92352,0.590909,0.357409,0.121392,2.731982,0.5,0.224909,0.100693,22,13,11,False,,,,,,38,37,0.9737,0.147193,1.0,7417.0,6.0,1.0,4133.0,27.0,,,
Encode-Decode_Experiment-8-1,2385851,encoding,0.060765,0.068966,0.066069,0.047668,-0.738824,0.0,0.020897,0.028284,29,2,0,False,,,,,,37,34,0.9189,0.201447,1.0,4848.0,7.0,1.0,5280.0,9.0,,,
Encode-Decode_Experiment-8-1,2344622,encoding,0.73344,0.3,0.2244,0.103076,0.747616,0.2,0.13705,0.084201,20,6,4,False,,,,,,34,26,0.7647,0.241018,1.0,3942.0,8.0,1.0,5201.0,16.0,,,
Encode-Decode_Experiment-8-1,2397102,encoding,1.123851,0.346154,0.235962,0.098049,0.30753,0.153846,0.128192,0.083419,26,9,4,False,,,,,,37,37,1.0,0.113161,1.0,2781.0,10.0,1.0,2300.0,38.0,,,
Encode-Decode_Experiment-8-1,2347025,encoding,1.830741,0.666667,0.469667,0.107607,0.527908,0.333333,0.280037,0.100958,27,18,9,False,,,,,,42,42,1.0,0.123411,1.0,4925.0,11.0,1.0,5296.0,51.0,,,
Encode-Decode_Experiment-8-1,2367132,encoding,5.486701,0.52,0.10748,0.075185,5.663553,0.52,0.1076,0.072816,25,13,13,False,,,,,,45,44,0.9778,0.103068,1.0,3032.0,12.0,1.0,2929.0,47.0,,,
Encode-Decode_Experiment-8-1,2394020,encoding,2.496872,0.708333,0.415042,0.117464,0.004021,0.166667,0.166333,0.082894,24,17,4,False,,,,,,38,33,0.8684,0.257362,1.0,4150.0,13.0,1.0,2688.0,39.0,,,
Encode-Decode_Experiment-8-1,2374670,encoding,1.056789,0.521739,0.392826,0.121986,1.445137,0.434783,0.278304,0.108279,23,12,10,False,,,,,,42,34,0.8095,0.255874,1.0,3568.0,14.0,1.0,3678.0,23.0,,,
Encode-Decode_Experiment-8-1,2370664,encoding,1.982342,0.4,0.21248,0.094595,-0.419512,0.08,0.1066,0.063407,25,10,2,False,,,,,,41,41,1.0,0.147608,0.0,1968.0,15.0,1.0,4005.0,31.0,,,
Encode-Decode_Experiment-8-1,2383555,encoding,0.383423,0.206897,0.174241,0.085167,0.774295,0.172414,0.119069,0.068895,29,6,5,False,,,,,,40,38,0.95,0.222199,1.0,2745.0,17.0,1.0,3751.0,50.0,,,
Encode-Decode_Experiment-8-1,150472,encoding,3.588978,0.586207,0.249,0.093956,4.256883,0.37931,0.109,0.0635,29,17,11,False,,,,,,40,39,0.975,0.097512,1.0,2851.0,18.0,1.0,3499.0,33.0,,,
Encode-Decode_Experiment-8-1,2411268,encoding,2.259676,0.5,0.2542,0.108777,1.97729,0.4,0.1943,0.104031,20,10,8,False,,,,,,35,32,0.9143,0.221108,0.0,4464.0,19.0,1.0,3122.0,30.0,,,
Encode-Decode_Experiment-8-1,2409918,encoding,3.39246,0.545455,0.2205,0.095787,1.585622,0.227273,0.113,0.072068,22,12,5,False,,,,,,37,32,0.8649,0.152732,1.0,4805.0,20.0,0.0,10788.0,36.0,,,
Encode-Decode_Experiment-8-1,2385550,encoding,3.001805,0.518519,0.252889,0.08849,0.764713,0.111111,0.070111,0.053615,27,14,3,False,,,,,,41,38,0.9268,0.273839,1.0,2590.0,21.0,1.0,3635.0,24.0,,,
Encode-Decode_Experiment-8-1,2360001,encoding,2.657856,0.321429,0.135143,0.070089,2.576825,0.142857,0.04125,0.039431,28,9,4,False,,,,,,37,37,1.0,0.273491,1.0,4581.0,22.0,1.0,2869.0,29.0,,,
Encode-Decode_Experiment-8-1,2371471,encoding,2.491041,0.5,0.269567,0.092505,-0.977904,0.033333,0.093833,0.061867,30,15,1,False,,,,,,34,34,1.0,0.359251,1.0,5239.0,26.0,1.0,8612.0,56.0,,,
Encode-Decode_Experiment-8-1,2408717,encoding,0.036244,0.258065,0.254871,0.088114,0.070182,0.129032,0.124452,0.065268,31,8,4,False,,,,,,39,34,0.8718,0.226803,1.0,2880.0,28.0,1.0,3744.0,46.0,,,
Encode-Decode_Experiment-8-1,2350974,encoding,3.962759,0.695652,0.282435,0.104275,3.565626,0.608696,0.249783,0.100659,23,16,14,False,,,,,,38,35,0.9211,0.268728,1.0,4079.0,34.0,1.0,4459.0,57.0,,,
Encode-Decode_Experiment-8-1,2349475,encoding,2.198678,0.4,0.208633,0.087037,3.429503,0.333333,0.108667,0.06551,30,12,10,False,,,,,,38,38,1.0,0.068237,1.0,4380.0,35.0,1.0,8085.0,54.0,,,
Encode-Decode_Experiment-8-1,2356991,encoding,0.204838,0.147059,0.132235,0.072367,0.462377,0.117647,0.0915,0.056549,34,5,4,False,,,,,,39,38,0.9744,0.169588,1.0,6155.0,41.0,1.0,4792.0,59.0,,,
Encode-Decode_Experiment-8-1,2348899,encoding,3.74928,0.571429,0.250571,0.085578,4.212406,0.571429,0.216964,0.084148,28,16,16,False,,,,,,38,38,1.0,0.205653,1.0,2948.0,42.0,1.0,3425.0,45.0,,,
Encode-Decode_Experiment-8-1,2362704,encoding,1.405148,0.222222,0.119222,0.073302,1.051653,0.111111,0.058481,0.050045,27,6,3,False,,,,,,36,34,0.9444,0.205955,1.0,3022.0,43.0,1.0,1982.0,53.0,,,
Encode-Decode_Experiment-8-1,2345035,encoding,1.879344,0.4,0.21812,0.096778,1.748502,0.28,0.14012,0.08,25,10,7,False,,,,,,38,35,0.9211,0.289683,1.0,3677.0,44.0,1.0,6170.0,55.0,,,
Encode-Decode_Experiment-8-1,2410309,encoding,2.043639,0.392857,0.213929,0.087554,1.631061,0.214286,0.101536,0.069127,28,11,6,False,,,,,,41,40,0.9756,0.282692,1.0,3056.0,49.0,1.0,4208.0,58.0,,,
Encode-Decode_Experiment-8-1,2347400,encoding,0.467842,0.257143,0.220143,0.079086,0.335853,0.228571,0.201971,0.079201,35,9,8,False,,,,,,45,41,0.9111,0.263876,0.0,7331.0,52.0,1.0,2831.0,60.0,,,
Encode-Decode_Experiment-8-1,2411268,decoding,-0.824366,0.222222,0.396667,0.211611,-0.61717,0.111111,0.208111,0.157169,9,2,1,False,0.6,3.0,0.666667,0.333333,4.0,19,19,1.0,0.081119,,,,,,,17815.0,1.0,14.0
Encode-Decode_Experiment-8-1,2347025,decoding,0.114689,0.833333,0.815,0.159852,-0.001368,0.5,0.500333,0.243584,6,5,3,False,0.6,3.0,0.4,0.483333,5.0,12,12,1.0,0.098938,,,,,,,29129.0,2.0,87.0
Encode-Decode_Experiment-8-1,2362704,decoding,,0.0,0.0,0.0,,0.0,0.0,0.0,3,0,0,False,0.25,1.0,-1.0,1.0,2.0,10,6,0.6,0.065629,,,,,,,27525.0,3.0,73.0
Encode-Decode_Experiment-8-1,2379478,decoding,-0.423969,0.5,0.6565,0.369131,,0.0,0.0,0.0,2,1,0,False,0.333333,1.0,,,1.0,10,4,0.4,0.165363,,,,,,,18026.0,4.0,40.0
Encode-Decode_Experiment-8-1,2350974,decoding,0.04303,0.333333,0.320333,0.302118,-0.032254,0.333333,0.343333,0.310036,3,1,1,False,0.5,2.0,-0.666667,0.333333,4.0,8,8,1.0,0.067282,,,,,,,27851.0,5.0,77.0
Encode-Decode_Experiment-8-1,2356991,decoding,0.832764,0.5,0.296,0.244967,,0.0,0.0,0.0,4,2,0,False,0.6,3.0,0.0,1.0,4.0,5,5,1.0,0.050667,,,,,,,40546.0,6.0,132.0
Encode-Decode_Experiment-8-1,2374670,decoding,0.345381,0.4,0.3178,0.237998,0.295135,0.4,0.3292,0.23989,5,2,2,False,1.0,3.0,1.0,0.333333,3.0,8,8,1.0,0.162787,,,,,,,19094.0,7.0,54.0
Encode-Decode_Experiment-8-1,2347400,decoding,1.437579,0.444444,0.216667,0.158445,1.022601,0.333333,0.181667,0.148315,9,4,3,False,0.375,3.0,-0.066667,1.0,6.0,15,15,1.0,0.081354,,,,,,,18373.0,8.0,41.0
Encode-Decode_Experiment-8-1,2345035,decoding,,0.0,0.0,0.0,,0.0,0.0,0.0,2,0,0,False,0.666667,2.0,0.333333,1.0,3.0,5,3,0.6,0.095865,,,,,,,35215.0,9.0,102.0
Encode-Decode_Experiment-8-1,2387122,decoding,-0.471989,0.5,0.671,0.362297,,0.0,0.0,0.0,2,1,0,False,0.333333,1.0,-1.0,0.333333,3.0,7,3,0.4286,0.104128,,,,,,,18877.0,10.0,73.0
Encode-Decode_Experiment-8-1,2369373,decoding,1.310598,0.75,0.39175,0.273349,,0.0,0.0,0.0,4,3,0,False,0.6,3.0,0.333333,0.75,4.0,11,11,1.0,0.228784,,,,,,,8036.0,11.0,0.0
Encode-Decode_Experiment-8-1,2344622,decoding,-1.006592,0.0,0.203,0.201671,-0.646995,0.0,0.0982,0.151779,5,0,0,False,0.4,2.0,0.0,1.0,4.0,9,8,0.8889,0.114116,,,,,,,14117.0,12.0,51.0
Encode-Decode_Experiment-8-1,2383555,decoding,,1.0,1.0,0.0,,0.0,0.0,0.0,1,1,0,True,0.5,1.0,,,1.0,3,3,1.0,0.102885,,,,,,,24153.0,13.0,62.0
Encode-Decode_Experiment-8-1,2410309,decoding,0.271854,0.75,0.6765,0.270366,-0.29776,0.25,0.3275,0.260276,4,3,1,False,1.0,3.0,1.0,0.333333,3.0,8,8,1.0,0.133387,,,,,,,30156.0,14.0,58.0
Encode-Decode_Experiment-8-1,2370664,decoding,,,,,,,,,0,0,0,True,1.0,1.0,,,1.0,7,7,1.0,0.170321,,,,,,,21616.0,15.0,50.0
Encode-Decode_Experiment-8-1,2397102,decoding,,0.0,0.0,0.0,,0.0,0.0,0.0,3,0,0,False,0.666667,2.0,1.0,1.0,2.0,9,9,1.0,0.048791,,,,,,,23536.0,16.0,76.0
Encode-Decode_Experiment-8-1,2367132,decoding,-0.667473,0.0,0.099,0.148321,,0.0,0.0,0.0,5,0,0,False,0.4,2.0,-0.333333,1.0,3.0,17,16,0.9412,0.044989,,,,,,,22516.0,17.0,65.0
Encode-Decode_Experiment-8-1,2385550,decoding,0.54853,0.166667,0.095333,0.130044,,0.0,0.0,0.0,6,1,0,False,0.6,3.0,1.0,0.333333,3.0,13,8,0.6154,0.257258,,,,,,,17130.0,18.0,56.0
Encode-Decode_Experiment-8-1,2412687,decoding,0.051169,0.5,0.48525,0.288262,0.243306,0.25,0.195,0.226053,4,2,1,False,0.4,2.0,0.333333,1.0,3.0,17,17,1.0,0.051626,,,,,,,21862.0,19.0,84.0
Encode-Decode_Experiment-8-1,2409918,decoding,-1.422082,0.0,0.3334,0.234445,,0.0,0.0,0.0,5,0,0,False,0.75,3.0,0.333333,0.75,4.0,14,14,1.0,0.051935,,,,,,,40278.0,20.0,51.0
Encode-Decode_Experiment-8-1,2408717,decoding,,1.0,1.0,0.0,,0.0,0.0,0.0,4,4,0,False,0.333333,1.0,,,1.0,15,15,1.0,0.080718,,,,,,,25132.0,21.0,85.0
Encode-Decode_Experiment-8-1,2348899,decoding,-0.342669,0.142857,0.206286,0.185101,-0.796273,0.0,0.102857,0.129173,7,1,0,False,0.4,2.0,1.0,1.0,2.0,15,14,0.9333,0.079226,,,,,,,34329.0,22.0,126.0
Encode-Decode_Experiment-8-1,2386442,decoding,-0.800303,0.0,0.135,0.168686,-0.75826,0.0,0.1316,0.173555,5,0,0,False,0.333333,2.0,0.0,1.0,4.0,10,10,1.0,0.04922,,,,,,,30541.0,23.0,92.0
Encode-Decode_Experiment-8-1,2371471,decoding,1.193143,1.0,0.6745,0.272809,0.638368,0.5,0.3335,0.260821,4,4,2,False,0.666667,2.0,1.0,1.0,2.0,13,10,0.7692,0.158863,,,,,,,30137.0,24.0,112.0
Encode-Decode_Experiment-8-1,2360001,decoding,0.677443,0.222222,0.135222,0.128424,1.50134,0.222222,0.074667,0.098283,9,2,2,False,0.375,3.0,-0.066667,1.0,6.0,14,12,0.8571,0.211829,,,,,,,21461.0,25.0,78.0
Encode-Decode_Experiment-8-1,2394020,decoding,,1.0,1.0,0.0,,1.0,1.0,0.0,1,1,1,True,0.5,1.0,-1.0,1.0,2.0,3,2,0.6667,0.216554,,,,,,,22893.0,26.0,92.0
Encode-Decode_Experiment-8-1,2356125,decoding,,0.0,0.0,0.0,,0.0,0.0,0.0,3,0,0,False,0.666667,2.0,1.0,1.0,2.0,13,9,0.6923,0.067349,,,,,,,33265.0,27.0,95.0
Encode-Decode_Experiment-8-1,150472,decoding,0.913255,0.25,0.10025,0.163974,0.883508,0.25,0.10075,0.168929,4,1,1,False,0.2,1.0,,,1.0,9,9,1.0,0.114286,,,,,,,21360.0,28.0,85.0
Encode-Decode_Experiment-8-1,2385851,decoding,,,,,,,,,0,0,0,True,1.0,1.0,,,1.0,12,1,0.0833,0.007572,,,,,,,13547.0,29.0,40.0
Encode-Decode_Experiment-8-1,2349475,decoding,1.420862,0.285714,0.099857,0.130806,1.147337,0.142857,0.046714,0.083797,7,2,1,False,0.428571,3.0,1.0,0.333333,3.0,10,9,0.9,0.138148,,,,,,,17695.0,30.0,48.0
Encode-Decode_Experiment-9-1,2362704,encoding,1.212282,0.5,0.323438,0.145645,1.240475,0.4375,0.280062,0.126917,16,8,7,False,,,,,,22,19,0.8636,0.221069,1.0,2259.0,1.0,1.0,2418.0,57.0,,,
Encode-Decode_Experiment-9-1,2370664,encoding,3.389251,0.652174,0.281391,0.1094,-0.144117,0.086957,0.096696,0.067578,23,15,2,False,,,,,,37,37,1.0,0.107297,1.0,2505.0,2.0,1.0,2736.0,7.0,,,
Encode-Decode_Experiment-9-1,2409918,encoding,2.625336,0.666667,0.339867,0.124479,,0.0,0.0,0.0,15,10,0,False,,,,,,31,25,0.8065,0.050967,1.0,6541.0,3.0,1.0,5306.0,17.0,,,
Encode-Decode_Experiment-9-1,2387122,encoding,0.373497,0.526316,0.47679,0.132601,0.226531,0.315789,0.288368,0.121048,19,10,6,False,,,,,,36,24,0.6667,0.123367,1.0,5142.0,4.0,1.0,6934.0,18.0,,,
Encode-Decode_Experiment-9-1,2347400,encoding,1.698592,0.478261,0.289435,0.111166,2.704913,0.434783,0.179609,0.094337,23,11,10,False,,,,,,45,37,0.8222,0.145305,1.0,4352.0,5.0,1.0,2467.0,50.0,,,
Encode-Decode_Experiment-9-1,2412687,encoding,1.958574,0.8,0.4657,0.170685,-0.743982,0.0,0.0662,0.088981,10,8,0,False,,,,,,30,22,0.7333,0.12542,1.0,3666.0,6.0,1.0,7076.0,30.0,,,
Encode-Decode_Experiment-9-1,2347025,encoding,2.598256,0.909091,0.467455,0.169974,1.927722,0.545455,0.257364,0.149446,11,10,6,False,,,,,,26,21,0.8077,0.088606,1.0,2906.0,8.0,1.0,2856.0,43.0,,,
Encode-Decode_Experiment-9-1,2371471,encoding,,1.0,1.0,0.0,-0.390852,0.6,0.6661,0.169118,10,10,6,False,,,,,,36,36,1.0,0.128951,1.0,6694.0,9.0,1.0,6708.0,26.0,,,
Encode-Decode_Experiment-9-1,2386442,encoding,2.761771,0.68,0.35624,0.117229,4.196499,0.64,0.24012,0.095289,25,17,16,False,,,,,,40,39,0.975,0.19139,1.0,4393.0,10.0,1.0,3579.0,23.0,,,
Encode-Decode_Experiment-9-1,2383555,encoding,1.699468,0.375,0.215667,0.093755,1.177805,0.208333,0.118417,0.076343,24,9,5,False,,,,,,33,32,0.9697,0.22862,1.0,2561.0,11.0,1.0,4183.0,36.0,,,
Encode-Decode_Experiment-9-1,2394020,encoding,-0.590967,0.5,0.592917,0.157228,-0.868963,0.083333,0.207833,0.143274,12,6,1,False,,,,,,37,21,0.5676,0.308736,1.0,3427.0,12.0,1.0,2747.0,41.0,,,
Encode-Decode_Experiment-9-1,2360001,encoding,0.410768,0.214286,0.17975,0.084076,0.516923,0.142857,0.108964,0.065567,28,6,4,False,,,,,,34,34,1.0,0.174152,1.0,3696.0,13.0,1.0,8662.0,49.0,,,
Encode-Decode_Experiment-9-1,2356125,encoding,0.496497,0.421053,0.360316,0.122331,0.447397,0.210526,0.167474,0.096229,19,8,4,False,,,,,,36,28,0.7778,0.106559,1.0,3972.0,14.0,1.0,3279.0,27.0,,,
Encode-Decode_Experiment-9-1,2345035,encoding,-0.392358,0.157895,0.202579,0.113886,0.229279,0.105263,0.088053,0.075064,19,3,2,False,,,,,,35,31,0.8857,0.145447,1.0,4093.0,15.0,0.0,5804.0,56.0,,,
Encode-Decode_Experiment-9-1,2379478,encoding,1.708317,0.318182,0.165909,0.089136,0.117505,0.090909,0.083409,0.063827,22,7,2,False,,,,,,30,30,1.0,0.324687,1.0,3329.0,16.0,1.0,1709.0,60.0,,,
Encode-Decode_Experiment-9-1,2397102,encoding,0.948093,0.533333,0.395867,0.144993,-1.328834,0.133333,0.318467,0.13932,15,8,2,False,,,,,,25,22,0.88,0.032917,1.0,2529.0,19.0,1.0,3352.0,53.0,,,
Encode-Decode_Experiment-9-1,2408717,encoding,1.655676,0.458333,0.289625,0.101897,0.870265,0.166667,0.108958,0.066311,24,11,4,False,,,,,,37,31,0.8378,0.186735,1.0,1691.0,20.0,1.0,4100.0,28.0,,,
Encode-Decode_Experiment-9-1,2350974,encoding,1.51849,0.411765,0.235118,0.116331,2.226392,0.411765,0.187882,0.100558,17,7,7,False,,,,,,34,25,0.7353,0.254454,1.0,2413.0,21.0,1.0,4834.0,52.0,,,
Encode-Decode_Experiment-9-1,2369373,encoding,-2.266701,0.478261,0.734739,0.11315,-1.198612,0.130435,0.264304,0.111687,23,11,3,False,,,,,,40,36,0.9,0.171678,1.0,3645.0,22.0,1.0,3316.0,32.0,,,
Encode-Decode_Experiment-9-1,2356991,encoding,1.018636,0.588235,0.444059,0.141539,3.187482,0.352941,0.095353,0.080812,17,10,6,False,,,,,,32,25,0.7812,0.152339,1.0,9650.0,24.0,1.0,9879.0,29.0,,,
Encode-Decode_Experiment-9-1,2411268,encoding,0.855837,0.5,0.335125,0.192648,0.593857,0.25,0.163,0.1465,8,4,2,False,,,,,,36,21,0.5833,0.080255,1.0,4919.0,25.0,1.0,2754.0,45.0,,,
Encode-Decode_Experiment-9-1,2367132,encoding,2.348645,0.4,0.18325,0.092287,3.467881,0.3,0.07215,0.065703,20,8,6,False,,,,,,37,32,0.8649,0.077958,1.0,2288.0,31.0,1.0,4448.0,47.0,,,
Encode-Decode_Experiment-9-1,2374670,encoding,3.191708,0.826087,0.42987,0.12414,1.34532,0.478261,0.325957,0.113211,23,19,11,False,,,,,,35,34,0.9714,0.161961,1.0,5247.0,33.0,1.0,4406.0,59.0,,,
Encode-Decode_Experiment-9-1,2385550,encoding,1.608706,0.35,0.18965,0.099676,1.370331,0.25,0.1305,0.087205,20,7,5,False,,,,,,36,33,0.9167,0.235485,1.0,2795.0,34.0,1.0,4057.0,58.0,,,
Encode-Decode_Experiment-9-1,2344622,encoding,-0.432895,0.3,0.35125,0.118389,-1.144878,0.1,0.21545,0.10084,20,6,2,False,,,,,,30,29,0.9667,0.102061,1.0,6507.0,35.0,1.0,3877.0,44.0,,,
Encode-Decode_Experiment-9-1,2385851,encoding,0.564743,0.066667,0.0368,0.052885,0.603015,0.066667,0.035133,0.052293,15,1,1,False,,,,,,35,25,0.7143,0.167463,0.0,12255.0,37.0,1.0,3182.0,48.0,,,
Encode-Decode_Experiment-9-1,2349475,encoding,0.322838,0.181818,0.144818,0.114609,0.884994,0.181818,0.093909,0.099333,11,2,2,False,,,,,,29,19,0.6552,0.10604,1.0,3077.0,38.0,1.0,8179.0,55.0,,,
Encode-Decode_Experiment-9-1,2410309,encoding,-1.440553,0.111111,0.288833,0.123371,-0.646261,0.111111,0.179556,0.105908,18,2,2,False,,,,,,39,34,0.8718,0.213774,1.0,3786.0,39.0,1.0,4133.0,42.0,,,
Encode-Decode_Experiment-9-1,2348899,encoding,0.028133,0.5,0.4945,0.195499,-0.462537,0.125,0.196625,0.154852,8,4,1,False,,,,,,18,18,1.0,0.090338,1.0,3995.0,40.0,1.0,4068.0,46.0,,,
Encode-Decode_Experiment-9-1,150472,encoding,0.199746,0.384615,0.353538,0.155582,-0.4888,0.153846,0.218692,0.132664,13,5,2,False,,,,,,22,18,0.8182,0.10836,1.0,2360.0,51.0,1.0,1787.0,54.0,,,
Encode-Decode_Experiment-9-1,2383555,decoding,-0.512508,0.090909,0.150636,0.116539,-0.512152,0.090909,0.151545,0.118395,11,1,1,False,0.5,4.0,0.047619,1.0,7.0,19,19,1.0,0.169818,,,,,,,51644.0,2.0,244.0
Encode-Decode_Experiment-9-1,2412687,decoding,,0.0,0.0,0.0,,0.0,0.0,0.0,2,0,0,False,0.5,1.0,,,1.0,19,19,1.0,0.023774,,,,,,,63611.0,3.0,197.0
Encode-Decode_Experiment-9-1,150472,decoding,1.540368,0.888889,0.592111,0.192667,0.124246,0.222222,0.203111,0.153816,9,8,2,False,0.6,3.0,0.333333,0.75,4.0,22,21,0.9545,0.09138,,,,,,,33357.0,4.0,126.0
Encode-Decode_Experiment-9-1,2356125,decoding,,1.0,1.0,0.0,-1.082983,0.125,0.3315,0.190677,8,8,1,False,0.333333,1.0,-1.0,1.0,2.0,16,13,0.8125,0.084981,,,,,,,83719.0,5.0,325.0
Encode-Decode_Experiment-9-1,2360001,decoding,-0.929238,0.083333,0.20125,0.126896,,0.0,0.0,0.0,12,1,0,False,0.2,1.0,-1.0,0.333333,3.0,18,18,1.0,0.251854,,,,,,,40252.0,6.0,94.0
Encode-Decode_Experiment-9-1,2394020,decoding,-0.002349,0.714286,0.714714,0.182443,-0.792538,0.142857,0.307143,0.207291,7,5,1,False,0.4,2.0,-0.2,0.816667,5.0,19,19,1.0,0.220251,,,,,,,50755.0,7.0,162.0
Encode-Decode_Experiment-9-1,2348899,decoding,3.104365,0.727273,0.263273,0.149467,1.829715,0.454545,0.204182,0.136832,11,8,5,False,0.4,2.0,-0.333333,1.0,3.0,20,19,0.95,0.200948,,,,,,,88949.0,8.0,397.0
Encode-Decode_Experiment-9-1,2411268,decoding,,0.0,0.0,0.0,,0.0,0.0,0.0,4,0,0,False,0.666667,2.0,0.333333,1.0,3.0,8,7,0.875,0.079061,,,,,,,54423.0,9.0,194.0
Encode-Decode_Experiment-9-1,2408717,decoding,1.625068,0.4375,0.25,0.11538,-0.420958,0.125,0.166187,0.097842,16,7,2,False,0.222222,2.0,-0.333333,0.75,4.0,20,20,1.0,0.303272,,,,,,,83009.0,10.0,279.0
Encode-Decode_Experiment-9-1,2409918,decoding,0.308519,0.230769,0.192385,0.124416,0.179792,0.230769,0.207923,0.12707,13,3,3,False,0.25,1.0,-1.0,1.0,2.0,21,21,1.0,0.0907,,,,,,,50701.0,11.0,154.0
Encode-Decode_Experiment-9-1,2347025,decoding,,1.0,1.0,0.0,,0.0,0.0,0.0,5,5,0,False,1.0,2.0,1.0,1.0,2.0,17,15,0.8824,0.068684,,,,,,,38328.0,12.0,134.0
Encode-Decode_Experiment-9-1,2356991,decoding,-0.020004,0.333333,0.339333,0.29994,,0.0,0.0,0.0,3,1,0,False,0.333333,1.0,-1.0,1.0,2.0,12,12,1.0,0.019098,,,,,,,55140.0,13.0,135.0
Encode-Decode_Experiment-9-1,2385851,decoding,,,,,,,,,0,0,0,True,1.0,1.0,,,1.0,11,11,1.0,0.341527,,,,,,,23585.0,14.0,55.0
