SubjectID,StimID,Phase,svg_z,svg_obs,svg_null_mean,svg_null_std,n_transitions,n_relational,low_n,lcs_enc_dec,lcs_len_enc_dec,tau_enc_dec,tau_p_enc_dec,n_shared_enc_dec,n_fixations,n_aoi,aoi_prop,mean_salience,enc_q1_accuracy,enc_q1_rt_ms,enc_q1_response,enc_q1_correct_key,enc_q1_question,enc_q2_accuracy,enc_q2_rt_ms,enc_q2_response,enc_q2_correct_key,enc_q2_question,enc_trial_index,enc_total_correct,dec_free_response,dec_rt_ms,dec_trial_index,dec_cue_question
Encode-Decode_Experiment-1-1,2371471,encoding,2.189755,0.6,0.36176,0.108798,25,15,False,,,,,,34,34,1.0,0.32853,1.0,7851.0,3.0,3.0,What is nearest to the motorcyclists?,1.0,12421.0,2.0,2.0,What stunt is one motorcyclist performing?,1.0,2.0,,,,
Encode-Decode_Experiment-1-1,2387122,encoding,-0.330065,0.347826,0.387522,0.120266,23,8,False,,,,,,33,29,0.8788,0.308556,1.0,7463.0,1.0,1.0,What is the polar bear doing next to the enclosure edge?,1.0,5668.0,3.0,3.0,Where is the polar bear located in the scene?,2.0,2.0,,,,
Encode-Decode_Experiment-1-1,2374670,encoding,-0.476733,0.3,0.35995,0.125752,20,6,False,,,,,,39,36,0.9231,0.212175,0.0,6044.0,4.0,1.0,What vehicle sprays water in the scene?,1.0,9310.0,3.0,3.0,Where is the man standing relative to the vehicle?,3.0,1.0,,,,
Encode-Decode_Experiment-1-1,2356991,encoding,2.017518,0.321429,0.158786,0.080615,28,9,False,,,,,,37,33,0.8919,0.161358,1.0,10953.0,1.0,1.0,How is the player on the left (from your perspective) reaching the base?,1.0,6687.0,2.0,2.0,What is the current action of the gloved player on the base?,4.0,2.0,,,,
Encode-Decode_Experiment-1-1,2412687,encoding,2.830765,0.666667,0.3048,0.127834,15,10,False,,,,,,29,26,0.8966,0.127853,1.0,9147.0,3.0,3.0,What is the human's body position?,1.0,5930.0,4.0,4.0,What is the dog biting onto in the scene?,5.0,2.0,,,,
Encode-Decode_Experiment-1-1,2360001,encoding,-0.770094,0.041667,0.092708,0.06628,24,1,False,,,,,,38,37,0.9737,0.279301,1.0,11249.0,4.0,4.0,What are the workers doing to the clock?,1.0,4944.0,4.0,4.0,Where are the men standing?,6.0,2.0,,,,
Encode-Decode_Experiment-1-1,2397102,encoding,3.190341,0.571429,0.227286,0.10787,21,12,False,,,,,,35,35,1.0,0.145785,1.0,4439.0,1.0,1.0,What are the couple doing with the cake?,1.0,4350.0,3.0,3.0,What is the man holding besides the cake knife?,7.0,2.0,,,,
Encode-Decode_Experiment-1-1,150472,encoding,1.668758,0.35,0.19075,0.09543,20,7,False,,,,,,30,30,1.0,0.08805,1.0,3118.0,4.0,4.0,How many women are in the scene?,1.0,3643.0,2.0,2.0,Where is the pizza slice located?,8.0,2.0,,,,
Encode-Decode_Experiment-1-1,2379478,encoding,3.182431,0.866667,0.396667,0.147686,15,13,False,,,,,,35,34,0.9714,0.406243,1.0,4689.0,4.0,4.0,What is the position of the babies?,1.0,2082.0,2.0,2.0,How many babies are visible in the scene?,9.0,2.0,,,,
Encode-Decode_Experiment-1-1,2369373,encoding,1.123483,0.6,0.46848,0.117064,25,15,False,,,,,,40,40,1.0,0.232915,1.0,6485.0,3.0,3.0,What tool is the chef using?,1.0,4938.0,3.0,3.0,What is the appearance of the oven?,10.0,2.0,,,,
Encode-Decode_Experiment-1-1,2347025,encoding,0.098753,0.473684,0.460684,0.131642,19,9,False,,,,,,39,37,0.9487,0.101181,1.0,4866.0,1.0,1.0,Where is the baby in relation to the mother?,1.0,5607.0,2.0,2.0,Who is holding the umbrella in the scene?,11.0,2.0,,,,
Encode-Decode_Experiment-1-1,2349475,encoding,1.168152,0.291667,0.184917,0.091384,24,7,False,,,,,,37,36,0.973,0.070533,1.0,4998.0,3.0,3.0,Which part of the blender is the woman holding?,0.0,14841.0,2.0,1.0,What is the man doing to power the blender?,12.0,1.0,,,,
Encode-Decode_Experiment-1-1,2394020,encoding,1.776663,0.615385,0.351692,0.14842,13,8,False,,,,,,33,27,0.8182,0.211957,1.0,11365.0,1.0,1.0,Where is the scene taking place?,1.0,3777.0,2.0,2.0,What are the riders wearing on their heads?,13.0,2.0,,,,
Encode-Decode_Experiment-1-1,2362704,encoding,-0.792589,0.045455,0.099455,0.068131,22,1,False,,,,,,28,26,0.9286,0.175742,1.0,4644.0,4.0,4.0,What are the bears doing with the pumpkins?,1.0,3040.0,2.0,2.0,How many bears are in the scene?,16.0,2.0,,,,
Encode-Decode_Experiment-1-1,2385550,encoding,2.217431,0.391304,0.199174,0.086646,23,9,False,,,,,,34,32,0.9412,0.305476,1.0,6081.0,3.0,3.0,Which side of the frame is the boy on? (from your perspective),1.0,4534.0,4.0,4.0,Where are the tangerines in the scene?,17.0,2.0,,,,
Encode-Decode_Experiment-1-1,2410309,encoding,2.29324,0.36,0.16272,0.086027,25,9,False,,,,,,36,34,0.9444,0.285861,1.0,3857.0,2.0,2.0,What is the baby touching?,1.0,3350.0,4.0,4.0,How many laptops or electronic devices are visible?,20.0,2.0,,,,
Encode-Decode_Experiment-1-1,2356125,encoding,1.7459,0.32,0.18104,0.079592,25,8,False,,,,,,34,33,0.9706,0.284523,1.0,3847.0,2.0,2.0,How many uniformed staff are moving the luggage?,1.0,5075.0,1.0,1.0,Where is the luggage being moved to?,22.0,2.0,,,,
Encode-Decode_Experiment-1-1,2348899,encoding,4.591028,0.75,0.2456,0.109866,20,15,False,,,,,,32,32,1.0,0.205595,1.0,5228.0,4.0,4.0,What is the woman doing?,1.0,9034.0,1.0,1.0,Where is the woman located relative to the man? (from your perspective),23.0,2.0,,,,
Encode-Decode_Experiment-1-1,2350974,encoding,4.20909,0.736842,0.259579,0.113389,19,14,False,,,,,,38,31,0.8158,0.278012,1.0,5186.0,4.0,4.0,Between which two objects is the child standing?,1.0,8762.0,1.0,1.0,What is the child up against?,24.0,2.0,,,,
Encode-Decode_Experiment-1-1,2383555,encoding,-0.030115,0.2,0.2028,0.092978,25,5,False,,,,,,34,33,0.9706,0.165578,0.0,7759.0,3.0,2.0,Who is holding the child in the boat?,1.0,4709.0,4.0,4.0,What is the woman at the back doing in the boat?,26.0,1.0,,,,
Encode-Decode_Experiment-1-1,2409918,encoding,2.408731,0.473684,0.224211,0.103571,19,9,False,,,,,,35,35,1.0,0.149448,1.0,9968.0,4.0,4.0,Where are the elephants in the scene?,1.0,6438.0,2.0,2.0,What is the elephant on the right (from your perspective) doing with its trunk?,27.0,2.0,,,,
Encode-Decode_Experiment-1-1,2347400,encoding,0.212464,0.222222,0.199444,0.107208,18,4,False,,,,,,30,27,0.9,0.241136,1.0,3779.0,3.0,3.0,What are the men doing with the wine?,1.0,2865.0,1.0,1.0,What are the men sitting on in the scene?,31.0,2.0,,,,
Encode-Decode_Experiment-1-1,2408717,encoding,1.46445,0.363636,0.219955,0.098113,22,8,False,,,,,,37,32,0.8649,0.207272,1.0,2675.0,2.0,2.0,How many surfers are in the scene?,1.0,4633.0,3.0,3.0,What are the surfers doing with the surfboards?,32.0,2.0,,,,
Encode-Decode_Experiment-1-1,2386442,encoding,2.947547,0.769231,0.331385,0.148546,13,10,False,,,,,,37,36,0.973,0.134292,1.0,6336.0,3.0,3.0,What is the person on the right wearing?,1.0,6401.0,1.0,1.0,Who is brushing their teeth in the scene?,33.0,2.0,,,,
Encode-Decode_Experiment-1-1,2385851,encoding,0.29707,0.12,0.1012,0.063285,25,3,False,,,,,,31,28,0.9032,0.15682,1.0,6572.0,3.0,3.0,Where are the men?,1.0,3877.0,2.0,2.0,What are the men doing with the suitcases?,35.0,2.0,,,,
Encode-Decode_Experiment-1-1,2344622,encoding,0.018231,0.333333,0.330417,0.159986,12,4,False,,,,,,24,19,0.7917,0.254556,1.0,3713.0,4.0,4.0,What is the cat resting its head on?,1.0,8759.0,2.0,2.0,Where is the cat located?,37.0,2.0,,,,
Encode-Decode_Experiment-1-1,2411268,encoding,2.743085,0.6,0.2838,0.115272,20,12,False,,,,,,32,31,0.9688,0.234453,0.0,9988.0,1.0,4.0,Where is the fruit branch relative to the child?,1.0,7151.0,2.0,2.0,What is the child holding while picking fruit?,38.0,1.0,,,,
Encode-Decode_Experiment-1-1,2345035,encoding,-0.53349,0.25,0.305964,0.104902,28,7,False,,,,,,41,36,0.878,0.23046,1.0,6065.0,3.0,3.0,What are the people doing with the football?,1.0,5287.0,2.0,2.0,Who runs toward the football in the scene?,42.0,2.0,,,,
Encode-Decode_Experiment-1-1,2370664,encoding,4.605735,0.555556,0.141389,0.089924,18,10,False,,,,,,40,40,1.0,0.147073,1.0,3329.0,1.0,1.0,Where are the people located in the scene?,1.0,3201.0,4.0,4.0,How many donuts are in the scene?,45.0,2.0,,,,
Encode-Decode_Experiment-1-1,2367132,encoding,2.469503,0.380952,0.154952,0.091516,21,8,False,,,,,,37,36,0.973,0.103802,1.0,4443.0,4.0,4.0,In which hand(s) are the men holding the controllers?,1.0,3240.0,2.0,2.0,How many men are playing in the scene?,46.0,2.0,,,,
Encode-Decode_Experiment-1-1,2362704,decoding,,0.0,0.0,0.0,7,0,False,1.0,2.0,1.0,1.0,2.0,19,15,0.7895,0.088457,,,,,,,,,,,,,two bears eating a pumpkin. two black bears.half eaten pumpkin,55163.0,1.0,Which description best matches the image?
Encode-Decode_Experiment-1-1,2367132,decoding,0.318221,0.75,0.6645,0.268682,4,3,False,0.666667,2.0,0.333333,1.0,3.0,10,10,1.0,0.060864,,,,,,,,,,,,,"two men playing v'deo games, a small child sitting on a sofa in the background. two blonde men with wii controllers",63967.0,2.0,Which description best matches the image?
Encode-Decode_Experiment-1-1,2412687,decoding,,0.0,0.0,0.0,4,0,False,1.0,2.0,1.0,1.0,2.0,14,12,0.8571,0.065487,,,,,,,,,,,,,a man playing with a dog' the dog is trying to grab the red frisbee' at night,35594.0,3.0,Which description best matches the image?
Encode-Decode_Experiment-1-1,2371471,decoding,1.110112,0.8,0.499,0.271144,5,4,False,0.5,2.0,0.333333,1.0,3.0,16,16,1.0,0.102446,,,,,,,,,,,,,a child rinking something in between a car and a motorcycle. the car was red amd the motorcycle was blue.,67237.0,4.0,Which description best matches the image?
Encode-Decode_Experiment-1-1,2344622,decoding,,1.0,1.0,0.0,1,1,True,1.0,2.0,1.0,1.0,2.0,18,18,1.0,0.166048,,,,,,,,,,,,,"a cat next to a keyboard, lounging on a blue blanket.",32372.0,5.0,Which description best matches the image?
Encode-Decode_Experiment-1-1,2408717,decoding,-0.481428,0.25,0.3385,0.183828,8,2,False,0.666667,2.0,1.0,1.0,2.0,26,24,0.9231,0.048856,,,,,,,,,,,,,"four women on a beach with surfboards, the ones closer to the photographer had neon green surfboards",51079.0,6.0,Which description best matches the image?
Encode-Decode_Experiment-1-1,2370664,decoding,-0.541137,0.5,0.6505,0.278118,4,2,False,0.666667,2.0,1.0,1.0,2.0,17,16,0.9412,0.159114,,,,,,,,,,,,,"two men and one woman eating donut in the street, the woman was standing in the middle of the two men, she had a red shirt on.",54622.0,7.0,Which description best matches the image?
Encode-Decode_Experiment-1-1,2356991,decoding,,0.0,0.0,0.0,6,0,False,0.5,2.0,1.0,1.0,2.0,20,18,0.9,0.10691,,,,,,,,,,,,,"two baseball player in the middle of a game, the player on the left is diving head first to grab the ball, the player on the right is trying to catch the ball with a focused face",79990.0,8.0,Which description best matches the image?
Encode-Decode_Experiment-1-1,2409918,decoding,-0.921624,0.181818,0.328818,0.159501,11,2,False,0.75,3.0,0.666667,0.333333,4.0,20,17,0.85,0.088457,,,,,,,,,,,,,"two men sitting on top of two elephants, the elephants are in water the elephant on the right is eating plants.",58745.0,9.0,Which description best matches the image?
Encode-Decode_Experiment-1-1,2374670,decoding,0.828019,0.5,0.336,0.198063,8,4,False,0.428571,3.0,1.0,0.333333,3.0,22,22,1.0,0.216077,,,,,,,,,,,,,"a red spray vehicle, a man on the back of a spray vehicle",38925.0,10.0,Which description best matches the image?
Encode-Decode_Experiment-1-1,2394020,decoding,1.555962,0.777778,0.499333,0.178953,9,7,False,0.25,1.0,-1.0,0.333333,3.0,23,22,0.9565,0.29959,,,,,,,,,,,,,"two men wearing cowboy hats are on horses, the horses are walking alongside a shore",37777.0,11.0,Which description best matches the image?
Encode-Decode_Experiment-1-1,2387122,decoding,0.315373,0.545455,0.494455,0.161713,11,6,False,0.6,3.0,0.666667,0.333333,4.0,20,17,0.85,0.150246,,,,,,,,,,,,,a big polar bear in a zoo enclosure pawing at the glass that is seperating the photograper from the bear.the photographer had gray hair,61612.0,12.0,Which description best matches the image?
Encode-Decode_Experiment-1-1,2369373,decoding,0.250421,0.714286,0.666,0.192818,7,5,False,0.666667,2.0,1.0,1.0,2.0,13,13,1.0,0.100731,,,,,,,,,,,,,,47037.0,13.0,Which description best matches the image?
Encode-Decode_Experiment-1-1,2385550,decoding,1.27053,0.888889,0.669444,0.172719,9,8,False,0.333333,1.0,-1.0,1.0,2.0,18,18,1.0,0.236058,,,,,,,,,,,,,one boy and one girl is eating tangerines next to each other. the boy is on the left of the screne and the girl is on the right of the screen. both children has brown eyes,64294.0,14.0,Which description best matches the image?
Encode-Decode_Experiment-1-1,2356125,decoding,,0.0,0.0,0.0,5,0,False,0.5,2.0,0.333333,1.0,3.0,18,18,1.0,0.071504,,,,,,,,,,,,,"four airport personnel (three woemn, one man) is standign next to a converyor belt, the two woman are putting the baggade on to converyor belt manually.",61707.0,15.0,Which description best matches the image?
Encode-Decode_Experiment-1-1,2350974,decoding,-0.436861,0.125,0.193375,0.156514,8,1,False,0.4,2.0,-0.666667,0.333333,4.0,17,17,1.0,0.211749,,,,,,,,,,,,,a child in between a red and blue car drinking something.,29496.0,16.0,Which description best matches the image?
Encode-Decode_Experiment-1-1,2385851,decoding,0.106475,0.222222,0.205778,0.154444,9,2,False,0.333333,2.0,-0.2,0.816667,5.0,16,15,0.9375,0.152109,,,,,,,,,,,,,"two men carrying suitcases, both suitcases are red.",31718.0,17.0,Which description best matches the image?
Encode-Decode_Experiment-1-1,2347400,decoding,-1.108892,0.0,0.204167,0.184118,6,0,False,0.4,2.0,0.333333,1.0,3.0,21,21,1.0,0.069835,,,,,,,,,,,,,two men smelling red wine sitting on a couch. there is a pokemon ball in the background,31252.0,18.0,Which description best matches the image?
Encode-Decode_Experiment-1-1,2347025,decoding,2.153473,0.923077,0.602077,0.149062,13,12,False,0.6,3.0,0.4,0.483333,5.0,19,18,0.9474,0.081798,,,,,,,,,,,,,one woamn and a child posing for a picture. the child is on the womans back holding a umbrella.,44220.0,19.0,Which description best matches the image?
Encode-Decode_Experiment-1-1,2410309,decoding,0.869228,0.533333,0.405733,0.146797,15,8,False,0.6,3.0,0.2,0.816667,5.0,23,23,1.0,0.176868,,,,,,,,,,,,,a woman and a child sitting together on a couch. both of them have a laptop on their laps.,36405.0,20.0,Which description best matches the image?
Encode-Decode_Experiment-1-1,150472,decoding,0.198436,0.333333,0.298778,0.174139,9,3,False,0.2,1.0,-1.0,0.333333,3.0,12,12,1.0,0.161246,,,,,,,,,,,,,two women eating pizza from a paper plate in the middle of the street. the woman on the right wears glasses,38149.0,21.0,Which description best matches the image?
Encode-Decode_Experiment-1-1,2386442,decoding,-0.292939,0.357143,0.402286,0.154103,14,5,False,0.5,3.0,0.333333,0.75,4.0,18,18,1.0,0.102708,,,,,,,,,,,,,a woman a child and a man are brushing their teeth. the man on the r'ght is wearing a purple shirt.,66095.0,22.0,Which description best matches the image?
Encode-Decode_Experiment-1-1,2397102,decoding,-0.70186,0.0,0.094833,0.135117,6,0,False,0.4,2.0,1.0,1.0,2.0,21,19,0.9048,0.054078,,,,,,,,,,,,,"one man and one woman is cutting a cake, the man on the right is holding a beer bottle in his other hand whilst cutting hte cake.",67717.0,23.0,Which description best matches the image?
Encode-Decode_Experiment-1-1,2345035,decoding,-0.963741,0.333333,0.527,0.200953,9,3,False,0.714286,5.0,0.619048,0.069048,7.0,17,15,0.8824,0.196564,,,,,,,,,,,,,two girls chasing a football. one has a jersey that has the number 20 on it.,28746.0,24.0,Which description best matches the image?
Encode-Decode_Experiment-1-1,2411268,decoding,1.847853,0.785714,0.493714,0.158021,14,11,False,0.5,2.0,0.333333,1.0,3.0,20,20,1.0,0.08537,,,,,,,,,,,,,a girl with pink boots picking apples form the tree above her head.,23197.0,25.0,Which description best matches the image?
Encode-Decode_Experiment-1-1,2348899,decoding,0.12414,0.333333,0.3075,0.208098,6,2,False,0.4,2.0,-0.333333,1.0,3.0,17,16,0.9412,0.12461,,,,,,,,,,,,,"a man at the center of the photograph, there is two toher men on the left side of the man with the pink tie. a woman is on thr roght of the man at the center. the woman is touching the pink tie on the mans neck.",71566.0,26.0,Which description best matches the image?
Encode-Decode_Experiment-1-1,2360001,decoding,1.295706,0.25,0.100875,0.115092,8,2,False,0.4,2.0,0.333333,1.0,3.0,19,18,0.9474,0.095826,,,,,,,,,,,,,four people fixing a clock standing on a scaffold.,24145.0,27.0,Which description best matches the image?
Encode-Decode_Experiment-1-1,2349475,decoding,2.117316,0.4,0.1397,0.122939,10,4,False,0.333333,2.0,-0.333333,0.75,4.0,19,19,1.0,0.055809,,,,,,,,,,,,,"there is a blender at the center of the oicture, the man on the left pf the blender is riding a bike, there is a woman on the left of the belnder holding the lid of the belnder, and there is a person in the background.",77043.0,28.0,Which description best matches the image?
Encode-Decode_Experiment-1-1,2379478,decoding,,0.0,0.0,0.0,8,0,False,0.4,2.0,1.0,1.0,2.0,24,22,0.9167,0.458496,,,,,,,,,,,,,two baby gitls lying in a bed drinking milk form bottles.,22883.0,29.0,Which description best matches the image?
Encode-Decode_Experiment-1-1,2383555,decoding,1.132425,0.375,0.195625,0.158399,8,3,False,0.6,3.0,0.0,1.0,5.0,17,16,0.9412,0.189631,,,,,,,,,,,,,two women and one child on a wooden boat. the woman at the front of the boat is holding a childe and the woman at the back of the boat is rowing the boat.,57145.0,30.0,Which description best matches the image?
Encode-Decode_Experiment-2-1,2379478,encoding,2.943927,0.433333,0.194833,0.081014,30,13,False,,,,,,42,39,0.9286,0.399197,0.0,5498.0,3.0,4.0,What is the position of the babies?,1.0,3096.0,2.0,2.0,How many babies are visible in the scene?,1.0,1.0,,,,
Encode-Decode_Experiment-2-1,2411268,encoding,-0.068396,0.272727,0.280227,0.109655,22,6,False,,,,,,39,30,0.7692,0.231935,1.0,3766.0,2.0,2.0,What is the child holding while picking fruit?,1.0,7271.0,4.0,4.0,Where is the fruit branch relative to the child?,2.0,2.0,,,,
Encode-Decode_Experiment-2-1,2409918,encoding,2.915182,0.521739,0.243739,0.095363,23,12,False,,,,,,37,32,0.8649,0.206175,0.0,9287.0,2.0,4.0,Where are the elephants in the scene?,1.0,7929.0,2.0,2.0,What is the elephant on the right (from your perspective) doing with its trunk?,3.0,1.0,,,,
Encode-Decode_Experiment-2-1,2370664,encoding,2.495213,0.32,0.13372,0.074655,25,8,False,,,,,,43,43,1.0,0.127741,1.0,3248.0,4.0,4.0,How many donuts are in the scene?,1.0,4623.0,1.0,1.0,Where are the people located in the scene?,4.0,2.0,,,,
Encode-Decode_Experiment-2-1,2356991,encoding,2.171468,0.3,0.141633,0.072931,30,9,False,,,,,,37,34,0.9189,0.182026,1.0,10888.0,1.0,1.0,How is the player on the left (from your perspective) reaching the base?,1.0,6990.0,2.0,2.0,What is the current action of the gloved player on the base?,5.0,2.0,,,,
Encode-Decode_Experiment-2-1,2369373,encoding,-0.282831,0.354839,0.382968,0.099455,31,11,False,,,,,,39,38,0.9744,0.225094,1.0,6557.0,3.0,3.0,What tool is the chef using?,1.0,3815.0,3.0,3.0,What is the appearance of the oven?,6.0,2.0,,,,
Encode-Decode_Experiment-2-1,2412687,encoding,-0.072542,0.375,0.38525,0.141298,16,6,False,,,,,,35,30,0.8571,0.161694,1.0,4214.0,3.0,3.0,What is the human's body position?,1.0,4284.0,4.0,4.0,What is the dog biting onto in the scene?,8.0,2.0,,,,
Encode-Decode_Experiment-2-1,150472,encoding,1.694639,0.391304,0.229783,0.095313,23,9,False,,,,,,37,35,0.9459,0.094441,1.0,2629.0,4.0,4.0,How many women are in the scene?,1.0,3299.0,2.0,2.0,Where is the pizza slice located?,9.0,2.0,,,,
Encode-Decode_Experiment-2-1,2397102,encoding,2.753468,0.5,0.2153,0.103397,20,10,False,,,,,,42,39,0.9286,0.129092,1.0,2582.0,1.0,1.0,What are the couple doing with the cake?,1.0,5618.0,3.0,3.0,What is the man holding besides the cake knife?,11.0,2.0,,,,
Encode-Decode_Experiment-2-1,2362704,encoding,-0.012501,0.192308,0.193462,0.0923,26,5,False,,,,,,34,33,0.9706,0.139211,1.0,3702.0,4.0,4.0,What are the bears doing with the pumpkins?,1.0,1876.0,2.0,2.0,How many bears are in the scene?,12.0,2.0,,,,
Encode-Decode_Experiment-2-1,2385550,encoding,3.751251,0.296296,0.08437,0.056495,27,8,False,,,,,,42,40,0.9524,0.219109,1.0,8090.0,3.0,3.0,Which side of the frame is the boy on? (from your perspective),1.0,3239.0,4.0,4.0,Where are the tangerines in the scene?,13.0,2.0,,,,
Encode-Decode_Experiment-2-1,2385851,encoding,-1.727638,0.0,0.130136,0.075326,22,0,False,,,,,,35,33,0.9429,0.221903,1.0,2645.0,2.0,2.0,What are the men doing with the suitcases?,0.0,6158.0,1.0,3.0,Where are the men?,14.0,1.0,,,,
Encode-Decode_Experiment-2-1,2344622,encoding,-0.204086,0.3125,0.338125,0.12556,16,5,False,,,,,,36,31,0.8611,0.211338,1.0,3756.0,4.0,4.0,What is the cat resting its head on?,1.0,4424.0,2.0,2.0,Where is the cat located?,15.0,2.0,,,,
Encode-Decode_Experiment-2-1,2410309,encoding,-0.593022,0.05,0.092,0.070824,20,1,False,,,,,,41,41,1.0,0.255183,1.0,3678.0,4.0,4.0,How many laptops or electronic devices are visible?,1.0,3459.0,2.0,2.0,What is the baby touching?,16.0,2.0,,,,
Encode-Decode_Experiment-2-1,2367132,encoding,1.714423,0.315789,0.149579,0.096948,19,6,False,,,,,,38,37,0.9737,0.123725,1.0,3794.0,2.0,2.0,How many men are playing in the scene?,1.0,3685.0,4.0,4.0,In which hand(s) are the men holding the controllers?,17.0,2.0,,,,
Encode-Decode_Experiment-2-1,2350974,encoding,1.272941,0.545455,0.338818,0.16233,11,6,False,,,,,,31,16,0.5161,0.2135,1.0,6600.0,1.0,1.0,What is the child up against?,1.0,5674.0,4.0,4.0,Between which two objects is the child standing?,18.0,2.0,,,,
Encode-Decode_Experiment-2-1,2347025,encoding,0.423892,0.666667,0.603667,0.148623,15,10,False,,,,,,38,38,1.0,0.10076,0.0,3439.0,1.0,2.0,Who is holding the umbrella in the scene?,1.0,5379.0,1.0,1.0,Where is the baby in relation to the mother?,19.0,1.0,,,,
Encode-Decode_Experiment-2-1,2360001,encoding,3.526676,0.190476,0.035333,0.043991,21,4,False,,,,,,31,31,1.0,0.319628,1.0,4367.0,4.0,4.0,What are the workers doing to the clock?,1.0,9546.0,4.0,4.0,Where are the men standing?,20.0,2.0,,,,
Encode-Decode_Experiment-2-1,2356125,encoding,-0.35256,0.190476,0.22419,0.095627,21,4,False,,,,,,37,30,0.8108,0.323423,1.0,6111.0,2.0,2.0,How many uniformed staff are moving the luggage?,1.0,5162.0,1.0,1.0,Where is the luggage being moved to?,21.0,2.0,,,,
Encode-Decode_Experiment-2-1,2408717,encoding,-0.409305,0.217391,0.260913,0.106331,23,5,False,,,,,,36,27,0.75,0.218882,1.0,4176.0,2.0,2.0,How many surfers are in the scene?,1.0,5085.0,3.0,3.0,What are the surfers doing with the surfboards?,24.0,2.0,,,,
Encode-Decode_Experiment-2-1,2349475,encoding,1.361363,0.181818,0.088227,0.068748,22,4,False,,,,,,43,37,0.8605,0.093206,1.0,8024.0,3.0,3.0,Which part of the blender is the woman holding?,1.0,8919.0,1.0,1.0,What is the man doing to power the blender?,25.0,2.0,,,,
Encode-Decode_Experiment-2-1,2345035,encoding,-0.71715,0.142857,0.208679,0.091782,28,4,False,,,,,,40,35,0.875,0.228074,1.0,11463.0,3.0,3.0,What are the people doing with the football?,1.0,4420.0,2.0,2.0,Who runs toward the football in the scene?,26.0,2.0,,,,
Encode-Decode_Experiment-2-1,2371471,encoding,-0.485463,0.222222,0.268333,0.094984,27,6,False,,,,,,32,32,1.0,0.48056,1.0,5253.0,3.0,3.0,What is nearest to the motorcyclists?,0.0,7494.0,1.0,2.0,What stunt is one motorcyclist performing?,27.0,1.0,,,,
Encode-Decode_Experiment-2-1,2347400,encoding,2.821787,0.5,0.194167,0.108383,18,9,False,,,,,,37,35,0.9459,0.22687,1.0,2490.0,3.0,3.0,What are the men doing with the wine?,1.0,1932.0,1.0,1.0,What are the men sitting on in the scene?,31.0,2.0,,,,
Encode-Decode_Experiment-2-1,2383555,encoding,-0.449259,0.083333,0.11675,0.074382,24,2,False,,,,,,37,33,0.8919,0.221859,1.0,3331.0,4.0,4.0,What is the woman at the back doing in the boat?,1.0,3728.0,2.0,2.0,Who is holding the child in the boat?,33.0,2.0,,,,
Encode-Decode_Experiment-2-1,2348899,encoding,3.942411,0.761905,0.331333,0.109215,21,16,False,,,,,,37,37,1.0,0.193031,0.0,6166.0,4.0,1.0,Where is the woman located relative to the man? (from your perspective),1.0,7291.0,4.0,4.0,What is the woman doing?,34.0,1.0,,,,
Encode-Decode_Experiment-2-1,2374670,encoding,2.08508,0.684211,0.410632,0.131208,19,13,False,,,,,,33,28,0.8485,0.270729,0.0,10456.0,1.0,3.0,Where is the man standing relative to the vehicle?,1.0,9186.0,1.0,1.0,What vehicle sprays water in the scene?,35.0,1.0,,,,
Encode-Decode_Experiment-2-1,2387122,encoding,0.332673,0.413793,0.376759,0.111324,29,12,False,,,,,,38,38,1.0,0.20467,1.0,3419.0,3.0,3.0,Where is the polar bear located in the scene?,1.0,7912.0,1.0,1.0,What is the polar bear doing next to the enclosure edge?,44.0,2.0,,,,
Encode-Decode_Experiment-2-1,2386442,encoding,2.967349,0.727273,0.364,0.122423,22,16,False,,,,,,43,43,1.0,0.121236,0.0,6521.0,1.0,3.0,What is the person on the right wearing?,1.0,4423.0,1.0,1.0,Who is brushing their teeth in the scene?,45.0,1.0,,,,
Encode-Decode_Experiment-2-1,2394020,encoding,2.48121,0.761905,0.457429,0.122713,21,16,False,,,,,,37,27,0.7297,0.351042,1.0,2375.0,1.0,1.0,Where is the scene taking place?,1.0,3578.0,2.0,2.0,What are the riders wearing on their heads?,47.0,2.0,,,,
Encode-Decode_Experiment-2-1,2362704,decoding,-0.932554,0.0,0.062312,0.066819,16,0,False,0.333333,2.0,0.333333,1.0,3.0,20,20,1.0,0.153456,,,,,,,,,,,,,two bears eating pumkins and lying on the ground one was looking toward the camera,41147.0,1.0,Which description best matches the image?
Encode-Decode_Experiment-2-1,150472,decoding,-0.149518,0.142857,0.166286,0.156694,7,1,False,0.75,3.0,0.333333,0.75,4.0,12,12,1.0,0.065708,,,,,,,,,,,,,a man was using a pizza hanle to put pizzas in a mouth shaped oven,32670.0,2.0,Which description best matches the image?
Encode-Decode_Experiment-2-1,2386442,decoding,0.729649,0.5,0.337833,0.222253,6,3,False,0.5,2.0,1.0,1.0,2.0,14,13,0.9286,0.044563,,,,,,,,,,,,,three people were brushing their teeth a woman was on the left a child was in the middle and a man was on the right. woman was weairng a striped shirt child was wearing a pink shirt and the man was wearing a purple shirt and they ina bathroom,116372.0,3.0,Which description best matches the image?
Encode-Decode_Experiment-2-1,2356125,decoding,,,,,0,0,True,1.0,1.0,,,1.0,14,14,1.0,0.074841,,,,,,,,,,,,,there were four uniformed people two standing near the conveying belt other two carring the luggage to the conveying belt and there were three luggages one was red the luggage being carried was a colorful one,94950.0,4.0,Which description best matches the image?
Encode-Decode_Experiment-2-1,2349475,decoding,-0.562475,0.076923,0.141154,0.114193,13,1,False,0.428571,3.0,0.4,0.483333,5.0,17,16,0.9412,0.159614,,,,,,,,,,,,,a man and woman were outside and the man was biking the women was holdin the lid of the blender and she was wearing a green shirt the man wearing a white one,50667.0,5.0,Which description best matches the image?
Encode-Decode_Experiment-2-1,2385851,decoding,0.572678,0.266667,0.1986,0.118857,15,4,False,0.428571,3.0,0.2,0.816667,5.0,19,18,0.9474,0.220397,,,,,,,,,,,,,two men were carring red luggages under a pathway,31816.0,6.0,Which description best matches the image?
Encode-Decode_Experiment-2-1,2412687,decoding,-0.801213,0.0,0.1635,0.204066,4,0,False,1.0,4.0,1.0,0.083333,4.0,15,13,0.8667,0.066356,,,,,,,,,,,,,a man and a dog were outside at a backyard at night and they were playin the man was holdina red frisbee and the dog was a golden retriver,99840.0,7.0,Which description best matches the image?
Encode-Decode_Experiment-2-1,2374670,decoding,-1.069173,0.285714,0.499,0.199487,7,2,False,0.75,3.0,1.0,0.333333,3.0,12,12,1.0,0.305899,,,,,,,,,,,,,a red truck was sparing water like liquid on the road while moving and there was a man behind the truck,36093.0,8.0,Which description best matches the image?
Encode-Decode_Experiment-2-1,2345035,decoding,-0.419379,0.25,0.3275,0.184797,8,2,False,1.0,3.0,1.0,0.333333,3.0,13,13,1.0,0.243879,,,,,,,,,,,,,two girls were chasing a ball one had a green one had a blue shirt and one had number 10 on their shirt,47594.0,9.0,Which description best matches the image?
Encode-Decode_Experiment-2-1,2383555,decoding,0.185962,0.222222,0.194667,0.148178,9,2,False,0.5,3.0,0.2,0.816667,5.0,15,14,0.9333,0.124215,,,,,,,,,,,,,there were four people on the boat a woman holding a baby a girl at the back and another women rowing the boat the water was not very clear and the weather was rainy,53563.0,10.0,Which description best matches the image?
Encode-Decode_Experiment-2-1,2347400,decoding,1.503006,0.4,0.1976,0.134663,10,4,False,0.666667,4.0,1.0,0.083333,4.0,15,15,1.0,0.118355,,,,,,,,,,,,,two men were sitting on a couch and dringking one the one the right was smelling the wine the other man was talking about something and the guy on the left was blonde,51094.0,11.0,Which description best matches the image?
Encode-Decode_Experiment-2-1,2347025,decoding,0.500901,0.875,0.79575,0.158215,8,7,False,0.6,3.0,0.2,0.816667,5.0,19,19,1.0,0.119685,,,,,,,,,,,,,two people were there an oldy woman was carrying a baby on her back and the baby was holding a pink umbrella and the weather was sunny,40395.0,12.0,Which description best matches the image?
Encode-Decode_Experiment-2-1,2385550,decoding,0.592628,0.444444,0.334222,0.185989,9,4,False,0.5,3.0,0.0,1.0,5.0,19,15,0.7895,0.191269,,,,,,,,,,,,,two kids were holding tangerines in their mouths and posing to the camera the boy on the left was younger than the girl on the right,61014.0,13.0,Which description best matches the image?
Encode-Decode_Experiment-2-1,2348899,decoding,-0.712101,0.375,0.50775,0.18642,8,3,False,0.5,2.0,1.0,1.0,2.0,15,13,0.8667,0.134571,,,,,,,,,,,,,there were four people three men were talking to each other one was sitting and a woman was touching the guys tie which was pink and white,53326.0,14.0,Which description best matches the image?
Encode-Decode_Experiment-2-1,2409918,decoding,1.054655,1.0,0.836714,0.154824,7,7,False,0.75,3.0,0.666667,0.333333,4.0,13,13,1.0,0.125211,,,,,,,,,,,,,two elephants were being cleaned by two men and the elephants were int he water by the time they were being cleaned,34963.0,15.0,Which description best matches the image?
Encode-Decode_Experiment-2-1,2379478,decoding,-0.094875,0.444444,0.461778,0.182698,9,4,False,0.666667,4.0,0.733333,0.055556,6.0,17,17,1.0,0.42265,,,,,,,,,,,,,two babies were lying on the bed with bottles in their hands,26790.0,16.0,Which description best matches the image?
Encode-Decode_Experiment-2-1,2371471,decoding,,0.0,0.0,0.0,2,0,False,1.0,2.0,1.0,1.0,2.0,14,14,1.0,0.139538,,,,,,,,,,,,,,36449.0,17.0,Which description best matches the image?
Encode-Decode_Experiment-2-1,2397102,decoding,0.606419,0.375,0.26775,0.176858,8,3,False,0.166667,1.0,,,1.0,19,19,1.0,0.062052,,,,,,,,,,,,,a couple was cutting a cake it was a white cake with sprinkles on and the woman was on the left wearing a pink strapless dress the man was on the left holding a beer can in his hand,73061.0,20.0,Which description best matches the image?
Encode-Decode_Experiment-2-1,2411268,decoding,,,,,0,0,True,1.0,1.0,,,1.0,16,1,0.0625,0.018178,,,,,,,,,,,,,a girl was picking apples from a tree she had boots on her feet and had a red bag,40389.0,21.0,Which description best matches the image?
Encode-Decode_Experiment-2-1,2394020,decoding,,1.0,1.0,0.0,4,4,False,0.666667,2.0,1.0,1.0,2.0,13,11,0.8462,0.089789,,,,,,,,,,,,,along the beach two men were riding horses and both were wearing cowbot hats,30391.0,22.0,Which description best matches the image?
Encode-Decode_Experiment-2-1,2344622,decoding,1.708503,1.0,0.675625,0.189859,8,8,False,0.0,0.0,,,0.0,17,17,1.0,0.294127,,,,,,,,,,,,,a man was sitting and looking at the laptop while the cat was sleeping on a blue blanket next to his hand on t he left,36576.0,23.0,Which description best matches the image?
Encode-Decode_Experiment-2-1,2360001,decoding,,0.0,0.0,0.0,9,0,False,0.666667,2.0,1.0,1.0,2.0,19,19,1.0,0.139017,,,,,,,,,,,,,bunch of people were raising a clock on by standing on the scaffolding and picture was balck and whote,33002.0,24.0,Which description best matches the image?
Encode-Decode_Experiment-2-1,2356991,decoding,,0.0,0.0,0.0,2,0,False,1.0,2.0,1.0,1.0,2.0,12,12,1.0,0.038629,,,,,,,,,,,,,two men were in the picture and one of them was looking for the ball and the other one was on the ground,33028.0,25.0,Which description best matches the image?
Encode-Decode_Experiment-2-1,2387122,decoding,,,,,0,0,True,0.0,0.0,,,0.0,11,1,0.0909,0.008175,,,,,,,,,,,,,the picture was taken in a zoo and a polar bear put its paw on the glass and there was a boy behing glass with a camera in his hand,48628.0,26.0,Which description best matches the image?
Encode-Decode_Experiment-2-1,2370664,decoding,,1.0,1.0,0.0,2,2,False,0.5,1.0,,,1.0,11,10,0.9091,0.103671,,,,,,,,,,,,,there were three people on the street two men waering the ame colored shirt and biting a donut the one on the left was waearing a watch the women at the back had a red shirt and she had earings,49780.0,27.0,Which description best matches the image?
Encode-Decode_Experiment-2-1,2408717,decoding,,1.0,1.0,0.0,3,3,False,0.333333,1.0,,,1.0,9,9,1.0,0.041422,,,,,,,,,,,,,four girls carrying surfboards two on the left was carrying a different one other two on the rigth was carrying a green surforad,35022.0,28.0,Which description best matches the image?
Encode-Decode_Experiment-2-1,2350974,decoding,-2.881524,0.125,0.659875,0.185622,8,1,False,0.333333,1.0,-1.0,1.0,2.0,14,14,1.0,0.161599,,,,,,,,,,,,,a toddler was drinking coke between a car and a motorcycle,20199.0,29.0,Which description best matches the image?
Encode-Decode_Experiment-2-1,2367132,decoding,,,,,0,0,True,0.0,0.0,,,0.0,11,11,1.0,0.00241,,,,,,,,,,,,,two men had a white controller in their hands and there was a girl behind them sitting on a couch,35200.0,30.0,Which description best matches the image?
Encode-Decode_Experiment-3-1,2348899,encoding,3.457095,0.608696,0.260739,0.10065,23,14,False,,,,,,33,32,0.9697,0.196117,1.0,4282.0,4.0,4.0,What is the woman doing?,0.0,6102.0,4.0,1.0,Where is the woman located relative to the man? (from your perspective),1.0,1.0,,,,
Encode-Decode_Experiment-3-1,2385550,encoding,2.378316,0.526316,0.263842,0.110361,19,10,False,,,,,,34,33,0.9706,0.158456,1.0,2750.0,4.0,4.0,Where are the tangerines in the scene?,1.0,4765.0,3.0,3.0,Which side of the frame is the boy on? (from your perspective),2.0,2.0,,,,
Encode-Decode_Experiment-3-1,2349475,encoding,0.254316,0.125,0.106583,0.072417,24,3,False,,,,,,37,32,0.8649,0.065952,1.0,3344.0,1.0,1.0,What is the man doing to power the blender?,1.0,3399.0,3.0,3.0,Which part of the blender is the woman holding?,3.0,2.0,,,,
Encode-Decode_Experiment-3-1,2350974,encoding,1.53532,0.722222,0.528889,0.125924,18,13,False,,,,,,37,30,0.8108,0.228493,1.0,5201.0,1.0,1.0,What is the child up against?,1.0,4508.0,4.0,4.0,Between which two objects is the child standing?,4.0,2.0,,,,
Encode-Decode_Experiment-3-1,2371471,encoding,1.538212,0.304348,0.164478,0.09093,23,7,False,,,,,,32,32,1.0,0.351353,1.0,7735.0,2.0,2.0,What stunt is one motorcyclist performing?,1.0,6461.0,3.0,3.0,What is nearest to the motorcyclists?,5.0,2.0,,,,
Encode-Decode_Experiment-3-1,2356125,encoding,1.061287,0.346154,0.250462,0.090166,26,9,False,,,,,,37,31,0.8378,0.278912,1.0,3202.0,2.0,2.0,How many uniformed staff are moving the luggage?,0.0,8233.0,3.0,1.0,Where is the luggage being moved to?,6.0,1.0,,,,
Encode-Decode_Experiment-3-1,2387122,encoding,1.385682,0.681818,0.504409,0.12803,22,15,False,,,,,,41,41,1.0,0.118037,1.0,3643.0,3.0,3.0,Where is the polar bear located in the scene?,1.0,5943.0,1.0,1.0,What is the polar bear doing next to the enclosure edge?,7.0,2.0,,,,
Encode-Decode_Experiment-3-1,2369373,encoding,0.356208,0.538462,0.500923,0.105383,26,14,False,,,,,,40,34,0.85,0.249228,1.0,3456.0,3.0,3.0,What is the appearance of the oven?,1.0,3757.0,3.0,3.0,What tool is the chef using?,8.0,2.0,,,,
Encode-Decode_Experiment-3-1,2394020,encoding,3.006432,0.85,0.46985,0.126446,20,17,False,,,,,,31,28,0.9032,0.241137,1.0,2717.0,1.0,1.0,Where is the scene taking place?,1.0,2682.0,2.0,2.0,What are the riders wearing on their heads?,9.0,2.0,,,,
Encode-Decode_Experiment-3-1,2370664,encoding,-1.17203,0.086957,0.190435,0.08829,23,2,False,,,,,,38,36,0.9474,0.122624,1.0,3000.0,4.0,4.0,How many donuts are in the scene?,1.0,3536.0,1.0,1.0,Where are the people located in the scene?,10.0,2.0,,,,
Encode-Decode_Experiment-3-1,150472,encoding,0.67695,0.478261,0.400217,0.115287,23,11,False,,,,,,36,36,1.0,0.095156,1.0,4279.0,4.0,4.0,How many women are in the scene?,1.0,2566.0,2.0,2.0,Where is the pizza slice located?,11.0,2.0,,,,
Encode-Decode_Experiment-3-1,2411268,encoding,3.483001,0.653846,0.289962,0.104474,26,17,False,,,,,,41,36,0.878,0.203535,1.0,5474.0,2.0,2.0,What is the child holding while picking fruit?,1.0,5107.0,4.0,4.0,Where is the fruit branch relative to the child?,12.0,2.0,,,,
Encode-Decode_Experiment-3-1,2385851,encoding,1.963381,0.368421,0.181789,0.095056,19,7,False,,,,,,38,28,0.7368,0.288481,1.0,3774.0,2.0,2.0,What are the men doing with the suitcases?,1.0,9158.0,3.0,3.0,Where are the men?,13.0,2.0,,,,
Encode-Decode_Experiment-3-1,2379478,encoding,2.147902,0.5,0.278885,0.102945,26,13,False,,,,,,38,35,0.9211,0.400744,1.0,3800.0,2.0,2.0,How many babies are visible in the scene?,1.0,3966.0,4.0,4.0,What is the position of the babies?,15.0,2.0,,,,
Encode-Decode_Experiment-3-1,2347400,encoding,1.925682,0.409091,0.215591,0.100484,22,9,False,,,,,,36,33,0.9167,0.221102,1.0,2576.0,1.0,1.0,What are the men sitting on in the scene?,1.0,4822.0,3.0,3.0,What are the men doing with the wine?,16.0,2.0,,,,
Encode-Decode_Experiment-3-1,2386442,encoding,0.524562,0.482759,0.427103,0.106098,29,14,False,,,,,,47,46,0.9787,0.088028,0.0,4849.0,1.0,3.0,What is the person on the right wearing?,1.0,4988.0,1.0,1.0,Who is brushing their teeth in the scene?,17.0,1.0,,,,
Encode-Decode_Experiment-3-1,2344622,encoding,-1.083746,0.055556,0.156389,0.093041,18,1,False,,,,,,42,38,0.9048,0.18236,1.0,5153.0,4.0,4.0,What is the cat resting its head on?,1.0,4767.0,2.0,2.0,Where is the cat located?,20.0,2.0,,,,
Encode-Decode_Experiment-3-1,2410309,encoding,-1.370397,0.117647,0.236794,0.086943,34,4,False,,,,,,49,48,0.9796,0.198075,1.0,4308.0,4.0,4.0,How many laptops or electronic devices are visible?,1.0,3773.0,2.0,2.0,What is the baby touching?,21.0,2.0,,,,
Encode-Decode_Experiment-3-1,2408717,encoding,0.200446,0.285714,0.264381,0.106429,21,6,False,,,,,,39,25,0.641,0.223449,1.0,2913.0,2.0,2.0,How many surfers are in the scene?,1.0,3465.0,3.0,3.0,What are the surfers doing with the surfboards?,23.0,2.0,,,,
Encode-Decode_Experiment-3-1,2345035,encoding,-0.319451,0.214286,0.244929,0.095924,28,6,False,,,,,,47,36,0.766,0.169135,0.0,5740.0,4.0,3.0,What are the people doing with the football?,1.0,7094.0,2.0,2.0,Who runs toward the football in the scene?,24.0,1.0,,,,
Encode-Decode_Experiment-3-1,2409918,encoding,3.785221,0.65,0.24735,0.106374,20,13,False,,,,,,43,34,0.7907,0.13324,1.0,4704.0,4.0,4.0,Where are the elephants in the scene?,1.0,7098.0,2.0,2.0,What is the elephant on the right (from your perspective) doing with its trunk?,26.0,2.0,,,,
Encode-Decode_Experiment-3-1,2367132,encoding,4.615691,0.55,0.1454,0.087658,20,11,False,,,,,,34,31,0.9118,0.090705,1.0,2652.0,2.0,2.0,How many men are playing in the scene?,1.0,3886.0,4.0,4.0,In which hand(s) are the men holding the controllers?,27.0,2.0,,,,
Encode-Decode_Experiment-3-1,2412687,encoding,0.399533,0.526316,0.475526,0.127122,19,10,False,,,,,,32,30,0.9375,0.106788,1.0,2861.0,4.0,4.0,What is the dog biting onto in the scene?,1.0,3810.0,3.0,3.0,What is the human's body position?,31.0,2.0,,,,
Encode-Decode_Experiment-3-1,2397102,encoding,1.430158,0.4375,0.255188,0.127477,16,7,False,,,,,,48,41,0.8542,0.048408,1.0,2872.0,3.0,3.0,What is the man holding besides the cake knife?,1.0,2315.0,1.0,1.0,What are the couple doing with the cake?,33.0,2.0,,,,
Encode-Decode_Experiment-3-1,2362704,encoding,1.680864,0.16129,0.073129,0.05245,31,5,False,,,,,,37,35,0.9459,0.169971,1.0,3361.0,4.0,4.0,What are the bears doing with the pumpkins?,1.0,2282.0,2.0,2.0,How many bears are in the scene?,39.0,2.0,,,,
Encode-Decode_Experiment-3-1,2356991,encoding,0.831896,0.304348,0.224783,0.095643,23,7,False,,,,,,31,28,0.9032,0.110549,1.0,4980.0,2.0,2.0,What is the current action of the gloved player on the base?,1.0,4967.0,1.0,1.0,How is the player on the left (from your perspective) reaching the base?,42.0,2.0,,,,
Encode-Decode_Experiment-3-1,2347025,encoding,-2.522649,0.5,0.796687,0.11761,16,8,False,,,,,,30,30,1.0,0.091809,1.0,2461.0,1.0,1.0,Where is the baby in relation to the mother?,1.0,3886.0,2.0,2.0,Who is holding the umbrella in the scene?,43.0,2.0,,,,
Encode-Decode_Experiment-3-1,2383555,encoding,-0.045196,0.041667,0.043583,0.042408,24,1,False,,,,,,39,32,0.8205,0.192574,1.0,3169.0,4.0,4.0,What is the woman at the back doing in the boat?,1.0,2954.0,2.0,2.0,Who is holding the child in the boat?,44.0,2.0,,,,
Encode-Decode_Experiment-3-1,2374670,encoding,0.368321,0.333333,0.288381,0.122047,21,7,False,,,,,,38,32,0.8421,0.299856,1.0,2330.0,1.0,1.0,What vehicle sprays water in the scene?,0.0,10675.0,4.0,3.0,Where is the man standing relative to the vehicle?,45.0,1.0,,,,
Encode-Decode_Experiment-3-1,2360001,encoding,3.314452,0.407407,0.154704,0.076243,27,11,False,,,,,,41,40,0.9756,0.236939,0.0,8085.0,3.0,4.0,Where are the men standing?,1.0,4486.0,4.0,4.0,What are the workers doing to the clock?,47.0,1.0,,,,
Encode-Decode_Experiment-3-1,2349475,decoding,1.248283,0.5,0.2926,0.166148,10,5,False,0.4,2.0,0.0,1.0,4.0,14,14,1.0,0.083703,,,,,,,,,,,,,man pedalling and woman holding top outside for charity,12112.0,1.0,Which description best matches the image?
Encode-Decode_Experiment-3-1,2409918,decoding,,0.0,0.0,0.0,2,0,False,1.0,2.0,1.0,1.0,2.0,11,11,1.0,0.021559,,,,,,,,,,,,,2 men sit on top of elephants in water,7036.0,2.0,Which description best matches the image?
Encode-Decode_Experiment-3-1,2383555,decoding,0.035971,0.071429,0.068643,0.077443,14,1,False,0.5,4.0,0.2,0.719444,6.0,19,17,0.8947,0.134081,,,,,,,,,,,,,dont recall,3621.0,3.0,Which description best matches the image?
Encode-Decode_Experiment-3-1,2387122,decoding,,0.0,0.0,0.0,1,0,True,1.0,2.0,1.0,1.0,2.0,14,3,0.2143,0.07146,,,,,,,,,,,,,in an enclosure of water with blonde woman holding camera to glass,12734.0,4.0,Which description best matches the image?
Encode-Decode_Experiment-3-1,2410309,decoding,,0.0,0.0,0.0,2,0,False,0.5,1.0,-1.0,1.0,2.0,6,6,1.0,0.15008,,,,,,,,,,,,,mum in red top facing forward on couch and baby on side with another laptop,16315.0,5.0,Which description best matches the image?
Encode-Decode_Experiment-3-1,2356991,decoding,,,,,0,0,True,1.0,1.0,,,1.0,11,11,1.0,0.043374,,,,,,,,,,,,,man diving and another about to catch,8224.0,6.0,Which description best matches the image?
Encode-Decode_Experiment-3-1,2386442,decoding,,1.0,1.0,0.0,2,2,False,0.666667,2.0,1.0,1.0,2.0,8,6,0.75,0.12274,,,,,,,,,,,,,mum baby dad brushing teeth together,6809.0,7.0,Which description best matches the image?
Encode-Decode_Experiment-3-1,2348899,decoding,0.505668,0.666667,0.493,0.34344,3,2,False,0.75,3.0,1.0,0.333333,3.0,6,6,1.0,0.089038,,,,,,,,,,,,,two men in background one sat with tie and woman touching tie,11233.0,8.0,Which description best matches the image?
Encode-Decode_Experiment-3-1,2362704,decoding,,0.0,0.0,0.0,3,0,False,0.333333,1.0,-1.0,0.333333,3.0,7,4,0.5714,0.01996,,,,,,,,,,,,,two black bears on ground eating pumpkins,8633.0,9.0,Which description best matches the image?
Encode-Decode_Experiment-3-1,2370664,decoding,-0.516062,0.5,0.686,0.360422,2,1,False,0.333333,1.0,,,1.0,7,3,0.4286,0.282149,,,,,,,,,,,,,two men and a woman each eating donut on the street,9618.0,10.0,Which description best matches the image?
Encode-Decode_Experiment-3-1,2367132,decoding,-1.547212,0.333333,0.674167,0.220289,6,2,False,0.666667,2.0,-0.333333,1.0,3.0,12,12,1.0,0.04617,,,,,,,,,,,,,"two men play wii ga,me and daughter watches on couch",10604.0,11.0,Which description best matches the image?
Encode-Decode_Experiment-3-1,2394020,decoding,,1.0,1.0,0.0,1,1,True,0.5,1.0,-1.0,1.0,2.0,12,12,1.0,0.115845,,,,,,,,,,,,,two men with cowboy hats ride horses down beach at sunset,11518.0,12.0,Which description best matches the image?
Encode-Decode_Experiment-3-1,2412687,decoding,0.544569,0.25,0.16975,0.147364,8,2,False,0.25,1.0,-1.0,0.083333,4.0,20,19,0.95,0.025826,,,,,,,,,,,,,dont recall,2802.0,13.0,Which description best matches the image?
Encode-Decode_Experiment-3-1,2408717,decoding,0.211943,0.4,0.3474,0.24818,5,2,False,0.75,3.0,1.0,0.333333,3.0,15,15,1.0,0.1852,,,,,,,,,,,,,four women walk towards ocean holding green surfboards,12244.0,14.0,Which description best matches the image?
Encode-Decode_Experiment-3-1,2356125,decoding,,,,,0,0,True,1.0,1.0,,,1.0,9,9,1.0,0.040274,,,,,,,,,,,,,3 women and a man stand next tpo conveyer and two women putting a suitcase onto another,19740.0,15.0,Which description best matches the image?
Encode-Decode_Experiment-3-1,2379478,decoding,1.295332,1.0,0.66225,0.260744,4,4,False,0.666667,2.0,1.0,1.0,2.0,5,5,1.0,0.249157,,,,,,,,,,,,,toddler and smaller baby drink bottle of milk each lying on their backs in bed,15376.0,16.0,Which description best matches the image?
Encode-Decode_Experiment-3-1,2360001,decoding,-1.553456,0.0,0.335286,0.215832,7,0,False,0.25,1.0,-1.0,0.333333,3.0,12,12,1.0,0.217801,,,,,,,,,,,,,3 men stand on scaffolding putting clock up on a street,10930.0,17.0,Which description best matches the image?
Encode-Decode_Experiment-3-1,2371471,decoding,0.309047,0.75,0.668,0.265332,4,3,False,0.5,2.0,0.0,1.0,4.0,15,14,0.9333,0.188777,,,,,,,,,,,,,small child drinking stoof between red car and motorcycle,10766.0,18.0,Which description best matches the image?
Encode-Decode_Experiment-3-1,2350974,decoding,1.880931,0.75,0.403375,0.184284,8,6,False,0.5,3.0,0.0,1.0,4.0,18,16,0.8889,0.184981,,,,,,,,,,,,,small child having a drink in between two vehicles,9610.0,19.0,Which description best matches the image?
Encode-Decode_Experiment-3-1,2347025,decoding,,1.0,1.0,0.0,1,1,True,1.0,2.0,1.0,1.0,2.0,6,6,1.0,0.0524,,,,,,,,,,,,,baby on mothers back holding pink umbrellla,7611.0,20.0,Which description best matches the image?
Encode-Decode_Experiment-3-1,2374670,decoding,,,,,0,0,True,1.0,1.0,,,1.0,17,17,1.0,0.078419,,,,,,,,,,,,,red farem vehicle rriving down dirt track spraying water with man on the back and campervans behind,21500.0,21.0,Which description best matches the image?
Encode-Decode_Experiment-3-1,2344622,decoding,-0.57092,0.333333,0.521333,0.329293,3,1,False,0.5,2.0,-0.333333,1.0,3.0,7,7,1.0,0.104069,,,,,,,,,,,,,persons hand on keyboard and cat to the left lying on blue blanket,12296.0,22.0,Which description best matches the image?
Encode-Decode_Experiment-3-1,2385851,decoding,,0.0,0.0,0.0,5,0,False,0.25,1.0,-1.0,1.0,2.0,10,10,1.0,0.229994,,,,,,,,,,,,,two men carry suitcases opn their backs along a covered walkway wearing loose clothing,16630.0,23.0,Which description best matches the image?
Encode-Decode_Experiment-3-1,2385550,decoding,1.845598,1.0,0.506,0.267664,5,5,False,0.5,2.0,1.0,1.0,2.0,10,10,1.0,0.095316,,,,,,,,,,,,,older sister and younger brother both pose for picture with orange pieces in their mouths,15127.0,24.0,Which description best matches the image?
Encode-Decode_Experiment-3-1,2397102,decoding,,,,,0,0,True,1.0,1.0,,,1.0,12,12,1.0,0.045433,,,,,,,,,,,,,woman in dress and man next to her holding beer cut a colourful cake,11868.0,25.0,Which description best matches the image?
Encode-Decode_Experiment-3-1,2347400,decoding,,,,,0,0,True,1.0,1.0,,,1.0,2,2,1.0,0.014773,,,,,,,,,,,,,two boys smell red wine sat in casual clothes on cpuch in living room,12323.0,26.0,Which description best matches the image?
Encode-Decode_Experiment-3-1,2411268,decoding,,0.0,0.0,0.0,1,0,True,0.5,1.0,,,1.0,13,13,1.0,0.07675,,,,,,,,,,,,,little girl in pink wellies and holding red bag reaches up to pick green apple,26974.0,27.0,Which description best matches the image?
Encode-Decode_Experiment-3-1,150472,decoding,1.103655,0.6,0.3276,0.246816,5,3,False,0.25,1.0,-1.0,1.0,2.0,7,7,1.0,0.052404,,,,,,,,,,,,,man in chef clothes slides p;izza into stone oven looks like a greek statue,14793.0,28.0,Which description best matches the image?
Encode-Decode_Experiment-3-1,2369373,decoding,1.804481,0.5,0.2025,0.164867,8,4,False,0.166667,1.0,-1.0,1.0,2.0,11,10,0.9091,0.169613,,,,,,,,,,,,,man slides pizza into oven,6788.0,29.0,Which description best matches the image?
Encode-Decode_Experiment-3-1,2345035,decoding,-0.008824,0.333333,0.336,0.302202,3,1,False,0.666667,2.0,1.0,1.0,2.0,7,5,0.7143,0.250669,,,,,,,,,,,,,20 chases 3 with football across a field with parents in background,12565.0,30.0,Which description best matches the image?
Encode-Decode_Experiment-4-1,2397102,encoding,3.886372,0.518519,0.178259,0.087552,27,14,False,,,,,,36,36,1.0,0.116982,1.0,9432.0,3.0,3.0,What is the man holding besides the cake knife?,1.0,2935.0,1.0,1.0,What are the couple doing with the cake?,1.0,2.0,,,,
Encode-Decode_Experiment-4-1,2356125,encoding,-0.891919,0.153846,0.281615,0.143252,13,2,False,,,,,,33,30,0.9091,0.135133,1.0,5575.0,2.0,2.0,How many uniformed staff are moving the luggage?,0.0,7698.0,4.0,1.0,Where is the luggage being moved to?,2.0,1.0,,,,
Encode-Decode_Experiment-4-1,2347400,encoding,0.406612,0.26087,0.221043,0.097946,23,6,False,,,,,,37,33,0.8919,0.210394,1.0,6584.0,3.0,3.0,What are the men doing with the wine?,1.0,3796.0,1.0,1.0,What are the men sitting on in the scene?,3.0,2.0,,,,
Encode-Decode_Experiment-4-1,2379478,encoding,2.218482,0.48,0.2508,0.103314,25,12,False,,,,,,36,36,1.0,0.317734,1.0,6000.0,4.0,4.0,What is the position of the babies?,1.0,3672.0,2.0,2.0,How many babies are visible in the scene?,4.0,2.0,,,,
Encode-Decode_Experiment-4-1,2385550,encoding,0.930698,0.259259,0.184556,0.080266,27,7,False,,,,,,37,36,0.973,0.241754,0.0,4753.0,2.0,3.0,Which side of the frame is the boy on? (from your perspective),1.0,3409.0,4.0,4.0,Where are the tangerines in the scene?,5.0,1.0,,,,
Encode-Decode_Experiment-4-1,2362704,encoding,0.027523,0.133333,0.131333,0.072667,30,4,False,,,,,,32,32,1.0,0.13307,1.0,2269.0,2.0,2.0,How many bears are in the scene?,1.0,2925.0,4.0,4.0,What are the bears doing with the pumpkins?,7.0,2.0,,,,
Encode-Decode_Experiment-4-1,2394020,encoding,2.371136,0.833333,0.522778,0.130973,18,15,False,,,,,,31,29,0.9355,0.241063,1.0,3299.0,2.0,2.0,What are the riders wearing on their heads?,1.0,5201.0,1.0,1.0,Where is the scene taking place?,8.0,2.0,,,,
Encode-Decode_Experiment-4-1,2374670,encoding,1.202017,0.48,0.349,0.108983,25,12,False,,,,,,33,30,0.9091,0.273023,1.0,10670.0,3.0,3.0,Where is the man standing relative to the vehicle?,1.0,5883.0,1.0,1.0,What vehicle sprays water in the scene?,9.0,2.0,,,,
Encode-Decode_Experiment-4-1,2409918,encoding,2.301961,0.666667,0.378222,0.125304,18,12,False,,,,,,34,32,0.9412,0.143787,1.0,5324.0,2.0,2.0,What is the elephant on the right (from your perspective) doing with its trunk?,1.0,4161.0,4.0,4.0,Where are the elephants in the scene?,11.0,2.0,,,,
Encode-Decode_Experiment-4-1,2345035,encoding,0.157104,0.222222,0.207852,0.091471,27,6,False,,,,,,39,32,0.8205,0.161992,1.0,7310.0,3.0,3.0,What are the people doing with the football?,1.0,4581.0,2.0,2.0,Who runs toward the football in the scene?,12.0,2.0,,,,
Encode-Decode_Experiment-4-1,2383555,encoding,-1.233978,0.0,0.086609,0.070187,23,0,False,,,,,,34,27,0.7941,0.162869,1.0,4161.0,2.0,2.0,Who is holding the child in the boat?,1.0,3201.0,4.0,4.0,What is the woman at the back doing in the boat?,13.0,2.0,,,,
Encode-Decode_Experiment-4-1,2386442,encoding,3.345722,0.666667,0.315,0.105109,27,18,False,,,,,,38,38,1.0,0.118407,0.0,4579.0,1.0,3.0,What is the person on the right wearing?,1.0,4371.0,1.0,1.0,Who is brushing their teeth in the scene?,14.0,1.0,,,,
Encode-Decode_Experiment-4-1,2385851,encoding,-0.222046,0.111111,0.126333,0.068554,27,3,False,,,,,,33,31,0.9394,0.218636,1.0,9568.0,3.0,3.0,Where are the men?,1.0,3301.0,2.0,2.0,What are the men doing with the suitcases?,16.0,2.0,,,,
Encode-Decode_Experiment-4-1,2369373,encoding,1.384707,0.521739,0.370391,0.1093,23,12,False,,,,,,38,36,0.9474,0.196659,1.0,4369.0,3.0,3.0,What tool is the chef using?,1.0,5755.0,3.0,3.0,What is the appearance of the oven?,17.0,2.0,,,,
Encode-Decode_Experiment-4-1,2410309,encoding,-0.989421,0.107143,0.195679,0.089482,28,3,False,,,,,,37,36,0.973,0.207211,1.0,4688.0,2.0,2.0,What is the baby touching?,1.0,4008.0,4.0,4.0,How many laptops or electronic devices are visible?,19.0,2.0,,,,
Encode-Decode_Experiment-4-1,2412687,encoding,2.373205,0.428571,0.210286,0.091979,21,9,False,,,,,,39,35,0.8974,0.206351,1.0,6241.0,4.0,4.0,What is the dog biting onto in the scene?,0.0,5765.0,2.0,3.0,What is the human's body position?,21.0,1.0,,,,
Encode-Decode_Experiment-4-1,2349475,encoding,1.763402,0.230769,0.110308,0.068312,26,6,False,,,,,,38,36,0.9474,0.073026,1.0,3326.0,3.0,3.0,Which part of the blender is the woman holding?,1.0,12925.0,1.0,1.0,What is the man doing to power the blender?,22.0,2.0,,,,
Encode-Decode_Experiment-4-1,2347025,encoding,2.15443,0.636364,0.382773,0.117707,22,14,False,,,,,,34,29,0.8529,0.122783,1.0,4993.0,2.0,2.0,Who is holding the umbrella in the scene?,1.0,6543.0,1.0,1.0,Where is the baby in relation to the mother?,23.0,2.0,,,,
Encode-Decode_Experiment-4-1,2360001,encoding,2.439507,0.28,0.11096,0.069293,25,7,False,,,,,,32,31,0.9688,0.333617,1.0,4401.0,4.0,4.0,Where are the men standing?,1.0,5281.0,4.0,4.0,What are the workers doing to the clock?,25.0,2.0,,,,
Encode-Decode_Experiment-4-1,2370664,encoding,-1.057687,0.1,0.2007,0.095208,20,2,False,,,,,,35,35,1.0,0.148556,1.0,4449.0,1.0,1.0,Where are the people located in the scene?,1.0,2957.0,4.0,4.0,How many donuts are in the scene?,26.0,2.0,,,,
Encode-Decode_Experiment-4-1,2411268,encoding,1.743696,0.470588,0.253412,0.12455,17,8,False,,,,,,32,25,0.7812,0.269349,1.0,5263.0,4.0,4.0,Where is the fruit branch relative to the child?,1.0,5133.0,2.0,2.0,What is the child holding while picking fruit?,27.0,2.0,,,,
Encode-Decode_Experiment-4-1,2387122,encoding,1.096298,0.35,0.23555,0.104397,20,7,False,,,,,,25,22,0.88,0.19925,1.0,6511.0,1.0,1.0,What is the polar bear doing next to the enclosure edge?,1.0,3898.0,3.0,3.0,Where is the polar bear located in the scene?,30.0,2.0,,,,
Encode-Decode_Experiment-4-1,2344622,encoding,0.008285,0.3,0.2991,0.108624,20,6,False,,,,,,35,26,0.7429,0.246308,1.0,5850.0,2.0,2.0,Where is the cat located?,1.0,4554.0,4.0,4.0,What is the cat resting its head on?,31.0,2.0,,,,
Encode-Decode_Experiment-4-1,2408717,encoding,1.112064,0.217391,0.134348,0.074675,23,5,False,,,,,,37,34,0.9189,0.232961,1.0,2687.0,2.0,2.0,How many surfers are in the scene?,0.0,3872.0,2.0,3.0,What are the surfers doing with the surfboards?,32.0,1.0,,,,
Encode-Decode_Experiment-4-1,2367132,encoding,5.633083,0.56,0.13932,0.07468,25,14,False,,,,,,33,32,0.9697,0.086315,1.0,6597.0,4.0,4.0,In which hand(s) are the men holding the controllers?,1.0,3408.0,2.0,2.0,How many men are playing in the scene?,34.0,2.0,,,,
Encode-Decode_Experiment-4-1,2348899,encoding,2.905356,0.571429,0.256143,0.108519,21,12,False,,,,,,36,36,1.0,0.190197,0.0,6606.0,4.0,1.0,Where is the woman located relative to the man? (from your perspective),1.0,4062.0,4.0,4.0,What is the woman doing?,38.0,1.0,,,,
Encode-Decode_Experiment-4-1,2356991,encoding,0.917145,0.259259,0.177778,0.088843,27,7,False,,,,,,33,31,0.9394,0.136008,1.0,7111.0,2.0,2.0,What is the current action of the gloved player on the base?,1.0,8700.0,1.0,1.0,How is the player on the left (from your perspective) reaching the base?,40.0,2.0,,,,
Encode-Decode_Experiment-4-1,2371471,encoding,2.64064,0.47619,0.19819,0.105277,21,10,False,,,,,,30,30,1.0,0.375526,1.0,6244.0,2.0,2.0,What stunt is one motorcyclist performing?,1.0,5281.0,3.0,3.0,What is nearest to the motorcyclists?,42.0,2.0,,,,
Encode-Decode_Experiment-4-1,2350974,encoding,2.709958,0.833333,0.469222,0.13436,18,15,False,,,,,,32,30,0.9375,0.256541,1.0,2861.0,1.0,1.0,What is the child up against?,1.0,5144.0,4.0,4.0,Between which two objects is the child standing?,49.0,2.0,,,,
Encode-Decode_Experiment-4-1,150472,encoding,-0.601671,0.185185,0.239556,0.090366,27,5,False,,,,,,34,34,1.0,0.068757,1.0,2838.0,2.0,2.0,Where is the pizza slice located?,1.0,2955.0,4.0,4.0,How many women are in the scene?,54.0,2.0,,,,
Encode-Decode_Experiment-4-1,2371471,decoding,,1.0,1.0,0.0,9,9,False,1.0,2.0,1.0,1.0,2.0,20,20,1.0,0.131041,,,,,,,,,,,,,two men riding motorcycles one of them was doing a handstand on the bike and the other was sitting down they were in a warehouse and there was a dirt ramp in view the man doing the handstand was to the right of the man sitting down,60180.0,1.0,Which description best matches the image?
Encode-Decode_Experiment-4-1,2385851,decoding,1.023859,0.2,0.0702,0.126775,5,1,False,0.5,3.0,0.0,1.0,4.0,15,15,1.0,0.122417,,,,,,,,,,,,,"to men carrying red suitcases on their backs, walking through a covered shelter away from the screen",33790.0,2.0,Which description best matches the image?
Encode-Decode_Experiment-4-1,2394020,decoding,-0.006145,0.5,0.5015,0.244092,6,3,False,0.4,2.0,-0.333333,1.0,3.0,9,9,1.0,0.215475,,,,,,,,,,,,,"two men riding black white and brown horses along a beach, riding from my perspective to the right and both wearing cowboy hats and shirts/jeans",44416.0,3.0,Which description best matches the image?
Encode-Decode_Experiment-4-1,2369373,decoding,0.359837,0.727273,0.668636,0.162952,11,8,False,0.666667,2.0,1.0,1.0,2.0,17,17,1.0,0.158121,,,,,,,,,,,,,man in white chef outfit and hat using a pizza paddle to put a pizza into pizza oven. oven looked like an open mout and was made of stone. fire inside oven,40345.0,4.0,Which description best matches the image?
Encode-Decode_Experiment-4-1,2412687,decoding,,0.0,0.0,0.0,1,0,True,0.5,1.0,,,1.0,14,13,0.9286,0.047213,,,,,,,,,,,,,"man in a grey outfit playing with a golden retriver dog in a garden, appeared to be nighttime. man i holding a red frisbee and standing to the right on the dog",41493.0,5.0,Which description best matches the image?
Encode-Decode_Experiment-4-1,2344622,decoding,0.359422,0.25,0.1725,0.215624,4,1,False,0.5,2.0,0.333333,1.0,3.0,19,18,0.9474,0.189899,,,,,,,,,,,,,cat lying on a b;ue blamket to the left of a key board where a womens hand is lying. woman has long nails,36588.0,6.0,Which description best matches the image?
Encode-Decode_Experiment-4-1,2360001,decoding,1.103838,0.272727,0.136091,0.123783,11,3,False,0.5,3.0,0.666667,0.333333,4.0,16,16,1.0,0.208077,,,,,,,,,,,,,,40965.0,7.0,Which description best matches the image?
Encode-Decode_Experiment-4-1,2411268,decoding,1.772217,0.928571,0.667,0.147596,14,13,False,1.0,3.0,1.0,0.333333,3.0,20,20,1.0,0.066589,,,,,,,,,,,,,child in garden picking green apples from a tree. the child is holding a red bag in left hand and reaches up with other hand there is another child in the background to the left (from my perspective),48952.0,8.0,Which description best matches the image?
Encode-Decode_Experiment-4-1,2370664,decoding,,,,,0,0,True,1.0,1.0,,,1.0,9,7,0.7778,0.140115,,,,,,,,,,,,,,18507.0,9.0,Which description best matches the image?
Encode-Decode_Experiment-4-1,2347400,decoding,,0.0,0.0,0.0,5,0,False,0.25,1.0,-1.0,1.0,2.0,13,9,0.6923,0.090873,,,,,,,,,,,,,"two men sat on a sofa are smelling red wine, one has a blue shirt with a face on it and the other is wearing grey, men have short hair",49913.0,10.0,Which description best matches the image?
Encode-Decode_Experiment-4-1,2410309,decoding,1.877587,0.666667,0.326111,0.181379,9,6,False,0.75,3.0,0.666667,0.333333,4.0,14,14,1.0,0.117017,,,,,,,,,,,,,,29422.0,11.0,Which description best matches the image?
Encode-Decode_Experiment-4-1,2374670,decoding,1.702834,0.7,0.4019,0.175061,10,7,False,0.333333,2.0,-0.333333,0.469444,6.0,15,15,1.0,0.197371,,,,,,,,,,,,,a man is standing on the back of a red truck which is spraying water from the bottom. the red truck appears to be driving down street and the mans back is facing screen. the truck has a green hose on it. man stands on left side of back of truck,71005.0,12.0,Which description best matches the image?
Encode-Decode_Experiment-4-1,2383555,decoding,-0.043955,0.166667,0.174,0.166839,6,1,False,0.5,2.0,1.0,1.0,2.0,15,15,1.0,0.131643,,,,,,,,,,,,,"three women and a baby are in a raft through a stream. the child is at the fron of the boat amd the woman behind is holding on to him, she wears a hat",53022.0,13.0,Which description best matches the image?
Encode-Decode_Experiment-4-1,2350974,decoding,0.288943,0.4,0.3296,0.243647,5,2,False,0.5,2.0,1.0,1.0,2.0,18,18,1.0,0.08706,,,,,,,,,,,,,"a child drinks from a nearly emtpy bottle of coke as he leans on a red car. he is between the red car and a blue motorbike, he has short brown hair",32983.0,14.0,Which description best matches the image?
Encode-Decode_Experiment-4-1,2367132,decoding,-0.000618,0.333333,0.333444,0.179746,9,3,False,0.25,1.0,,,1.0,17,17,1.0,0.045624,,,,,,,,,,,,,"two men play wii im living room setting. they both hold on to a controller in each hand, there is a girl in the background sitting on a brown/beige sofa",44274.0,15.0,Which description best matches the image?
Encode-Decode_Experiment-4-1,2408717,decoding,,0.0,0.0,0.0,3,0,False,0.333333,1.0,-1.0,1.0,2.0,13,12,0.9231,0.084928,,,,,,,,,,,,,four women in wetsuits carry surfboards towards the sea. the two women to the right of the screen carrying blue/ turquoise surdfboards and the other two woemne carry mostly white surfboards,45680.0,16.0,Which description best matches the image?
Encode-Decode_Experiment-4-1,2379478,decoding,-0.838355,0.25,0.49825,0.296116,4,1,False,0.4,2.0,0.333333,1.0,3.0,6,5,0.8333,0.446368,,,,,,,,,,,,,,27368.0,17.0,Which description best matches the image?
Encode-Decode_Experiment-4-1,2356125,decoding,0.497353,0.666667,0.507,0.321033,3,2,False,0.5,2.0,-0.333333,1.0,3.0,18,18,1.0,0.057042,,,,,,,,,,,,,,5787.0,18.0,Which description best matches the image?
Encode-Decode_Experiment-4-1,2385550,decoding,,1.0,1.0,0.0,1,1,True,1.0,2.0,1.0,1.0,2.0,19,19,1.0,0.875462,,,,,,,,,,,,,"two children a girl and a boy have tangerine piece in their mouths. the girl is on the rught side and has a fringe, they both have brown eyes",42164.0,19.0,Which description best matches the image?
Encode-Decode_Experiment-4-1,2348899,decoding,0.962054,0.714286,0.508,0.214422,7,5,False,1.0,4.0,1.0,0.083333,4.0,22,21,0.9545,0.164233,,,,,,,,,,,,,"a man sitting down has a tie on and another tie thats pink and stripey around his neck. a women is standing over him to the right and is touchin ghte tie, two men are sitting to the left of him and one is wearing a black and white stripey shirt",59960.0,20.0,Which description best matches the image?
Encode-Decode_Experiment-4-1,2409918,decoding,-0.572336,0.375,0.4945,0.208794,8,3,False,0.75,3.0,1.0,0.333333,3.0,13,13,1.0,0.083134,,,,,,,,,,,,,two men are on top of two elephants in a stream. on the left the man sits on the eleohant and on the right the man stands. the elephants are eating,48299.0,21.0,Which description best matches the image?
Encode-Decode_Experiment-4-1,2387122,decoding,,,,,0,0,True,1.0,1.0,,,1.0,21,17,0.8095,0.135519,,,,,,,,,,,,,a blonde short haired woman is taking photographs of a polar bear which is opposite to her in water. the polar bear has its paws pressedup against the glass enclosure that it sits in,58112.0,22.0,Which description best matches the image?
Encode-Decode_Experiment-4-1,2362704,decoding,0.417622,0.25,0.16475,0.204132,4,1,False,0.75,3.0,0.333333,0.75,4.0,11,11,1.0,0.127878,,,,,,,,,,,,,two black bears sit on the ground eating two pumpkins which are torn apart,27621.0,23.0,Which description best matches the image?
Encode-Decode_Experiment-4-1,150472,decoding,0.708546,0.333333,0.204167,0.182298,6,2,False,0.333333,2.0,0.2,0.816667,5.0,17,17,1.0,0.148441,,,,,,,,,,,,,chef in white uniform and chef hat uses pizza paddle to put pizza into oven. the pizza ove is made from stone and looks like a large open mouth. there is fire seen inside the oven,51631.0,24.0,Which description best matches the image?
Encode-Decode_Experiment-4-1,2356991,decoding,,0.0,0.0,0.0,4,0,False,0.5,1.0,,,1.0,24,24,1.0,0.061716,,,,,,,,,,,,,a man dives head first towards a base whilst the other appears to be trying to catch him out. one of the men is wearing a glove. uniforms are white and red. the man catching the other out is standing upright,70295.0,25.0,Which description best matches the image?
Encode-Decode_Experiment-4-1,2397102,decoding,-0.541748,0.2,0.333,0.245502,5,1,False,0.25,1.0,-1.0,1.0,2.0,19,18,0.9474,0.065275,,,,,,,,,,,,,a woman and a man are cutting a cake together. he holds the knife with one hand and she holds it with two. she wears a red strapless dress and he holds a beer in his free hand in a brown bottle. the icing on the cake is red yellow and blue and white,61884.0,26.0,Which description best matches the image?
Encode-Decode_Experiment-4-1,2345035,decoding,,1.0,1.0,0.0,1,1,True,0.5,1.0,-1.0,1.0,2.0,16,16,1.0,0.122809,,,,,,,,,,,,,two girls are chasing a football away from the screen. thereare other players on the footbacll pitch. the two girls chasing are numbers 20 and 3 and both have ling hair in ponytails,50913.0,27.0,Which description best matches the image?
Encode-Decode_Experiment-4-1,2347025,decoding,,1.0,1.0,0.0,8,8,False,0.333333,1.0,-1.0,0.333333,3.0,19,17,0.8947,0.1061,,,,,,,,,,,,,a woman holds a small child on her back who is holding an umberella. the woman faces the camera directly and is smiling. the umberella is multicoloured and the child wears a raincoat,51590.0,28.0,Which description best matches the image?
Encode-Decode_Experiment-4-1,2349475,decoding,,0.0,0.0,0.0,5,0,False,0.333333,1.0,-1.0,0.333333,3.0,20,20,1.0,0.027336,,,,,,,,,,,,,"there is a yellow looking drink inside of a large blender. a man peddles a bike which appears to be connected to the blender. a woman stands to the other side of the blender which is the right side. a man stands behind the blender in the background but his face cannot be seen. the man on the bike is looking at the camera and smiling, they are wearing sportswear",76752.0,29.0,Which description best matches the image?
Encode-Decode_Experiment-4-1,2386442,decoding,,,,,0,0,True,1.0,1.0,,,1.0,19,19,1.0,0.055388,,,,,,,,,,,,,"a woman man and ababy are all brushing their teeth. they all have bworn hair. the man wears a pink shirts and the baby a checkered one. the woman wears glasses, they all look directly towards the camera",40908.0,30.0,Which description best matches the image?
Encode-Decode_Experiment-5-1,2349475,encoding,0.25707,0.35,0.31765,0.125841,20,7,False,,,,,,34,30,0.8824,0.08261,0.0,8172.0,2.0,1.0,What is the man doing to power the blender?,1.0,3660.0,3.0,3.0,Which part of the blender is the woman holding?,1.0,1.0,,,,
Encode-Decode_Experiment-5-1,2360001,encoding,0.736598,0.166667,0.121267,0.061635,30,5,False,,,,,,37,37,1.0,0.259329,1.0,3813.0,4.0,4.0,What are the workers doing to the clock?,1.0,6089.0,4.0,4.0,Where are the men standing?,2.0,2.0,,,,
Encode-Decode_Experiment-5-1,2348899,encoding,3.554272,0.541667,0.201833,0.095613,24,13,False,,,,,,33,32,0.9697,0.156679,1.0,3413.0,4.0,4.0,What is the woman doing?,0.0,9968.0,4.0,1.0,Where is the woman located relative to the man? (from your perspective),3.0,1.0,,,,
Encode-Decode_Experiment-5-1,2410309,encoding,1.376074,0.269231,0.157269,0.081363,26,7,False,,,,,,33,33,1.0,0.262614,0.0,2908.0,4.0,2.0,What is the baby touching?,1.0,4102.0,4.0,4.0,How many laptops or electronic devices are visible?,4.0,1.0,,,,
Encode-Decode_Experiment-5-1,2345035,encoding,-0.039243,0.258065,0.261742,0.09371,31,8,False,,,,,,38,33,0.8684,0.185014,1.0,6024.0,2.0,2.0,Who runs toward the football in the scene?,0.0,6124.0,4.0,3.0,What are the people doing with the football?,5.0,1.0,,,,
Encode-Decode_Experiment-5-1,2374670,encoding,2.238985,0.722222,0.432,0.129622,18,13,False,,,,,,30,29,0.9667,0.227883,0.0,5301.0,4.0,1.0,What vehicle sprays water in the scene?,0.0,13294.0,1.0,3.0,Where is the man standing relative to the vehicle?,6.0,0.0,,,,
Encode-Decode_Experiment-5-1,2367132,encoding,3.848432,0.5,0.159636,0.088442,22,11,False,,,,,,35,33,0.9429,0.085645,1.0,4793.0,4.0,4.0,In which hand(s) are the men holding the controllers?,1.0,4182.0,2.0,2.0,How many men are playing in the scene?,7.0,2.0,,,,
Encode-Decode_Experiment-5-1,150472,encoding,-0.262984,0.25,0.2775,0.104569,24,6,False,,,,,,34,32,0.9412,0.081712,1.0,3198.0,4.0,4.0,How many women are in the scene?,1.0,2794.0,2.0,2.0,Where is the pizza slice located?,9.0,2.0,,,,
Encode-Decode_Experiment-5-1,2347025,encoding,1.338935,0.8,0.602333,0.14763,15,12,False,,,,,,29,26,0.8966,0.14315,1.0,4566.0,1.0,1.0,Where is the baby in relation to the mother?,1.0,3624.0,2.0,2.0,Who is holding the umbrella in the scene?,10.0,2.0,,,,
Encode-Decode_Experiment-5-1,2344622,encoding,1.299171,0.318182,0.195773,0.094221,22,7,False,,,,,,33,30,0.9091,0.240572,1.0,3927.0,4.0,4.0,What is the cat resting its head on?,1.0,4099.0,2.0,2.0,Where is the cat located?,11.0,2.0,,,,
Encode-Decode_Experiment-5-1,2408717,encoding,0.315504,0.24,0.21104,0.09179,25,6,False,,,,,,32,29,0.9062,0.250411,1.0,3377.0,2.0,2.0,How many surfers are in the scene?,1.0,4399.0,3.0,3.0,What are the surfers doing with the surfboards?,12.0,2.0,,,,
Encode-Decode_Experiment-5-1,2356991,encoding,0.430569,0.24,0.19476,0.10507,25,6,False,,,,,,32,31,0.9688,0.148026,0.0,6258.0,3.0,2.0,What is the current action of the gloved player on the base?,0.0,11878.0,3.0,1.0,How is the player on the left (from your perspective) reaching the base?,13.0,0.0,,,,
Encode-Decode_Experiment-5-1,2362704,encoding,0.247401,0.130435,0.11213,0.073987,23,3,False,,,,,,33,33,1.0,0.170206,1.0,3687.0,4.0,4.0,What are the bears doing with the pumpkins?,1.0,1893.0,2.0,2.0,How many bears are in the scene?,14.0,2.0,,,,
Encode-Decode_Experiment-5-1,2385851,encoding,1.325343,0.185185,0.102481,0.062402,27,5,False,,,,,,30,30,1.0,0.134796,1.0,3307.0,2.0,2.0,What are the men doing with the suitcases?,0.0,5379.0,4.0,3.0,Where are the men?,15.0,1.0,,,,
Encode-Decode_Experiment-5-1,2370664,encoding,1.193743,0.333333,0.201933,0.110074,15,5,False,,,,,,29,29,1.0,0.119727,1.0,2450.0,4.0,4.0,How many donuts are in the scene?,1.0,3950.0,1.0,1.0,Where are the people located in the scene?,17.0,2.0,,,,
Encode-Decode_Experiment-5-1,2356125,encoding,0.746515,0.291667,0.223958,0.090699,24,7,False,,,,,,32,29,0.9062,0.289429,0.0,11198.0,3.0,1.0,Where is the luggage being moved to?,1.0,3117.0,2.0,2.0,How many uniformed staff are moving the luggage?,18.0,1.0,,,,
Encode-Decode_Experiment-5-1,2386442,encoding,1.54802,0.631579,0.429,0.130863,19,12,False,,,,,,33,33,1.0,0.13122,1.0,7533.0,1.0,1.0,Who is brushing their teeth in the scene?,1.0,5414.0,3.0,3.0,What is the person on the right wearing?,19.0,2.0,,,,
Encode-Decode_Experiment-5-1,2371471,encoding,4.267171,0.611111,0.175889,0.101993,18,11,False,,,,,,30,30,1.0,0.34825,1.0,10200.0,3.0,3.0,What is nearest to the motorcyclists?,1.0,8912.0,2.0,2.0,What stunt is one motorcyclist performing?,20.0,2.0,,,,
Encode-Decode_Experiment-5-1,2385550,encoding,3.92621,0.545455,0.190818,0.090325,22,12,False,,,,,,31,28,0.9032,0.273435,1.0,3058.0,4.0,4.0,Where are the tangerines in the scene?,1.0,6850.0,3.0,3.0,Which side of the frame is the boy on? (from your perspective),23.0,2.0,,,,
Encode-Decode_Experiment-5-1,2350974,encoding,2.407574,0.409091,0.178409,0.095815,22,9,False,,,,,,31,28,0.9032,0.254555,0.0,3514.0,1.0,4.0,Between which two objects is the child standing?,1.0,3277.0,1.0,1.0,What is the child up against?,25.0,1.0,,,,
Encode-Decode_Experiment-5-1,2369373,encoding,0.97228,0.461538,0.349692,0.115035,26,12,False,,,,,,33,33,1.0,0.247019,1.0,7750.0,3.0,3.0,What is the appearance of the oven?,1.0,3747.0,3.0,3.0,What tool is the chef using?,26.0,2.0,,,,
Encode-Decode_Experiment-5-1,2409918,encoding,3.545298,0.764706,0.316471,0.126431,17,13,False,,,,,,32,28,0.875,0.147515,1.0,5272.0,2.0,2.0,What is the elephant on the right (from your perspective) doing with its trunk?,1.0,4649.0,4.0,4.0,Where are the elephants in the scene?,27.0,2.0,,,,
Encode-Decode_Experiment-5-1,2411268,encoding,3.060034,0.588235,0.220882,0.120049,17,10,False,,,,,,31,26,0.8387,0.217167,1.0,5381.0,2.0,2.0,What is the child holding while picking fruit?,0.0,8047.0,3.0,4.0,Where is the fruit branch relative to the child?,28.0,1.0,,,,
Encode-Decode_Experiment-5-1,2412687,encoding,1.792938,0.526316,0.312737,0.119122,19,10,False,,,,,,30,27,0.9,0.155201,1.0,5392.0,3.0,3.0,What is the human's body position?,1.0,7321.0,4.0,4.0,What is the dog biting onto in the scene?,30.0,2.0,,,,
Encode-Decode_Experiment-5-1,2383555,encoding,0.35694,0.142857,0.114333,0.079912,21,3,False,,,,,,33,29,0.8788,0.171518,0.0,3792.0,3.0,2.0,Who is holding the child in the boat?,1.0,3054.0,4.0,4.0,What is the woman at the back doing in the boat?,31.0,1.0,,,,
Encode-Decode_Experiment-5-1,2397102,encoding,2.353329,0.444444,0.1955,0.105784,18,8,False,,,,,,27,27,1.0,0.099939,1.0,4137.0,1.0,1.0,What are the couple doing with the cake?,1.0,5111.0,3.0,3.0,What is the man holding besides the cake knife?,33.0,2.0,,,,
Encode-Decode_Experiment-5-1,2394020,encoding,1.149159,0.714286,0.568905,0.126511,21,15,False,,,,,,35,29,0.8286,0.314237,1.0,7965.0,1.0,1.0,Where is the scene taking place?,1.0,3672.0,2.0,2.0,What are the riders wearing on their heads?,37.0,2.0,,,,
Encode-Decode_Experiment-5-1,2379478,encoding,2.233269,0.555556,0.283778,0.121695,18,10,False,,,,,,31,26,0.8387,0.439666,1.0,2238.0,2.0,2.0,How many babies are visible in the scene?,1.0,4225.0,4.0,4.0,What is the position of the babies?,38.0,2.0,,,,
Encode-Decode_Experiment-5-1,2387122,encoding,0.709199,0.565217,0.474609,0.127762,23,13,False,,,,,,28,27,0.9643,0.153336,1.0,6753.0,1.0,1.0,What is the polar bear doing next to the enclosure edge?,1.0,4290.0,3.0,3.0,Where is the polar bear located in the scene?,46.0,2.0,,,,
Encode-Decode_Experiment-5-1,2347400,encoding,-0.904267,0.076923,0.179385,0.113309,13,1,False,,,,,,26,24,0.9231,0.202065,1.0,2878.0,1.0,1.0,What are the men sitting on in the scene?,1.0,5821.0,3.0,3.0,What are the men doing with the wine?,56.0,2.0,,,,
Encode-Decode_Experiment-5-1,2347025,decoding,,1.0,1.0,0.0,1,1,True,1.0,2.0,1.0,1.0,2.0,7,6,0.8571,0.119019,,,,,,,,,,,,,"small baby holding an umbrella either pink or red on the bcak of an older woman who was holding her. The baby held the umbrella with her right hand, and was a girl. Both the baby and the woman appeared to ne asian and i beleive the baby perhaps had her hood up aswell, it looked like it was raining",101350.0,1.0,Which description best matches the image?
Encode-Decode_Experiment-5-1,2371471,decoding,,1.0,1.0,0.0,1,1,True,1.0,2.0,1.0,1.0,2.0,7,7,1.0,0.087017,,,,,,,,,,,,,"two bike stuntmen, one in front and one behind. the one in front was holding on to the handle bars of the bike but his body was risen from his seat because he was doing a handstand, while the other rider was sat on the bike. both of them were suspended in mid air and looked like they were heading towards the brown but of ground on the image. There were grey pannels behund them and i believe there was one rider in a red costume and helmet, and another rider in a blue costume and helmet",112618.0,2.0,Which description best matches the image?
Encode-Decode_Experiment-5-1,2370664,decoding,,,,,0,0,True,1.0,1.0,,,1.0,3,3,1.0,0.167319,,,,,,,,,,,,,"3 friends eating donuts, 2 men and one woman in the middle with the 2 men at eaither side of her. both men were just holding the donut up to their mouths but not actually eatung it, the man on the right sunk his teeth into his donut and you could see his two front teeth. the woman simply held the docut up to her mouth withought placing it in her mouth and she had brown hair",110859.0,3.0,Which description best matches the image?
Encode-Decode_Experiment-5-1,2369373,decoding,0.038894,0.666667,0.655,0.299958,3,2,False,0.666667,2.0,1.0,1.0,2.0,7,7,1.0,0.154891,,,,,,,,,,,,,"a grey pizza oven in the shape of a big face, the chef was using a pizza slider to put the pizza inside of the oven and he had on a white apron and chefs hat",42578.0,4.0,Which description best matches the image?
Encode-Decode_Experiment-5-1,2386442,decoding,,,,,0,0,True,1.0,1.0,,,1.0,1,1,1.0,0.077636,,,,,,,,,,,,,"a woman, man and a child brushing their teeth, with the woman at the left side with visible toothpaste around her mouth, the child in the middle with the toothbrush inside his mouth and the man on the right with the toothbrush also in his mouth and wearing a purple sweater",68421.0,5.0,Which description best matches the image?
Encode-Decode_Experiment-5-1,2374670,decoding,,0.0,0.0,0.0,1,0,True,1.0,2.0,1.0,1.0,2.0,6,6,1.0,0.152816,,,,,,,,,,,,,"man stood at the back of a red spraying truck where there were 4 hoses off of the truck, he is at the back of the vehicle and stood on a fixture that looks like a wooden plank",62125.0,6.0,Which description best matches the image?
Encode-Decode_Experiment-5-1,2410309,decoding,0.408758,0.25,0.1655,0.206724,4,1,False,0.75,3.0,1.0,0.333333,3.0,10,9,0.9,0.151746,,,,,,,,,,,,,"a person's hand is on the black keyboard and there is a grey and black cat to the left of the person , laying ona  blue cloth.",52776.0,7.0,Which description best matches the image?
Encode-Decode_Experiment-5-1,2360001,decoding,0.688034,0.5,0.32025,0.261252,4,2,False,0.25,1.0,-1.0,1.0,2.0,6,5,0.8333,0.169165,,,,,,,,,,,,,"3 or 4 men attempting to raise a large clock on a street, stood on a wooden plank in a black and white image",42092.0,8.0,Which description best matches the image?
Encode-Decode_Experiment-5-1,2350974,decoding,0.053334,0.5,0.4855,0.271873,4,2,False,0.5,2.0,-0.333333,1.0,3.0,9,9,1.0,0.309613,,,,,,,,,,,,,a small child is drinking from a coca cola bottle and leaning with his hand against a red car. someone who i think was on a bike is infront of the child,54546.0,9.0,Which description best matches the image?
Encode-Decode_Experiment-5-1,2412687,decoding,,0.0,0.0,0.0,4,0,False,1.0,2.0,1.0,1.0,2.0,11,11,1.0,0.050348,,,,,,,,,,,,,"a dog was about to take a red frisbee from the hand of its owner, it was in a back garden of some sort and looked like a blonde labrador",93447.0,11.0,Which description best matches the image?
Encode-Decode_Experiment-5-1,2347400,decoding,,0.0,0.0,0.0,1,0,True,0.5,1.0,,,1.0,8,7,0.875,0.087039,,,,,,,,,,,,,"two men sat on a couch dwith two glasses of red wine on on each hand, they were holding the glasses up to their noses and smelling it. the couch was brown and the man on the right was squinting his eyes as he smelled the wine, and the man on the left had his wine glass held lower to around his mouth area",75047.0,12.0,Which description best matches the image?
Encode-Decode_Experiment-5-1,2397102,decoding,0.479296,0.428571,0.328286,0.209236,7,3,False,0.75,3.0,1.0,0.333333,3.0,15,14,0.9333,0.065797,,,,,,,,,,,,,"a man and a woman were cutting a cake, the cake had white frosting on it and blue letters as well as red, they were holding the cake knife together when cutting the cake and were both white individuals",49814.0,13.0,Which description best matches the image?
Encode-Decode_Experiment-5-1,150472,decoding,-1.347591,0.0,0.3076,0.228259,5,0,False,0.6,3.0,0.4,0.483333,5.0,8,8,1.0,0.120395,,,,,,,,,,,,,"two women posed for a picture with one plastic plate infront of them containing a slice of pizza- the woman on the right had her mouth open as to say she was going to pose as if she was eating the pixxa, and the woman on the left did not",63136.0,14.0,Which description best matches the image?
Encode-Decode_Experiment-5-1,2408717,decoding,,1.0,1.0,0.0,1,1,True,0.5,1.0,,,1.0,6,6,1.0,0.08471,,,,,,,,,,,,,"4 women about to enter the sea were walking on the becah holding their surfboards, the women closest to me relative to the image had green surfboards and the other two women had white ones,",45091.0,15.0,Which description best matches the image?
Encode-Decode_Experiment-5-1,2356991,decoding,-0.619799,0.5,0.66675,0.269039,4,2,False,1.0,3.0,1.0,0.333333,3.0,13,13,1.0,0.044929,,,,,,,,,,,,,"there were 2 men playing baseball, and the one with the glove was preparing to catch the ball, after the other man-who was on the floor- had just tossed it",45568.0,16.0,Which description best matches the image?
Encode-Decode_Experiment-5-1,2367132,decoding,0.519217,0.285714,0.195286,0.174163,7,2,False,0.333333,2.0,0.0,1.0,5.0,13,11,0.8462,0.053855,,,,,,,,,,,,,"two men stood up with Wii controllers in their hands, they were each holding one conroller in each hand and were in a living room setting. one of the men had brown hair, perhaps the other one did too but i remember the man to the right of the image definitely having brown hair.",99258.0,17.0,Which description best matches the image?
Encode-Decode_Experiment-5-1,2409918,decoding,,0.0,0.0,0.0,2,0,False,0.5,1.0,,,1.0,6,6,1.0,0.109382,,,,,,,,,,,,,"two elephants in a body of water eating leaves, there were 2 men in the picture also, who were stood on top of these elephants",32011.0,18.0,Which description best matches the image?
Encode-Decode_Experiment-5-1,2411268,decoding,,1.0,1.0,0.0,1,1,True,0.5,1.0,-1.0,1.0,2.0,8,8,1.0,0.091216,,,,,,,,,,,,,"little girl picking apples from a small tree, the apples were green and she had a red bag. the branches on the tree were relatively low",46732.0,19.0,Which description best matches the image?
Encode-Decode_Experiment-5-1,2348899,decoding,,1.0,1.0,0.0,2,2,False,1.0,2.0,1.0,1.0,2.0,14,14,1.0,0.112024,,,,,,,,,,,,,a man had a tie on already but he out on another one that wasn't tied yet. he is sat down on a chair and a woman is touching his tie- there are 2 more men in the photograph whom the man sat down is looking at,55689.0,20.0,Which description best matches the image?
Encode-Decode_Experiment-5-1,2385550,decoding,1.090638,0.666667,0.334667,0.304409,3,2,False,0.333333,1.0,-1.0,1.0,2.0,13,13,1.0,0.20224,,,,,,,,,,,,,"two shildren a boy and a girl with tangerines in their mouths that are unchewed, the girl is earing pink",28094.0,21.0,Which description best matches the image?
Encode-Decode_Experiment-5-1,2345035,decoding,,0.0,0.0,0.0,4,0,False,1.0,2.0,1.0,1.0,2.0,14,12,0.8571,0.306193,,,,,,,,,,,,,"2 girls running for the ball and are both really close to it, they are wearing blacl stripped uniform and have ponytails in their hair",40197.0,22.0,Which description best matches the image?
Encode-Decode_Experiment-5-1,2387122,decoding,,1.0,1.0,0.0,3,3,False,1.0,2.0,1.0,1.0,2.0,8,7,0.875,0.151963,,,,,,,,,,,,,"the polar bear is within its enclosure and has its head poking up out of the water, with its paw up against the glass showing its claws. there is a photographer standing close to the left side of the glass panel",76710.0,23.0,Which description best matches the image?
Encode-Decode_Experiment-5-1,2362704,decoding,-0.198054,0.428571,0.472429,0.22144,7,3,False,0.333333,2.0,1.0,1.0,2.0,11,9,0.8182,0.1734,,,,,,,,,,,,,"2 black bears are eating some pumpkis. there appears to be two pumpkins, and one bear is eating his while the other is looking around a little",33916.0,24.0,Which description best matches the image?
Encode-Decode_Experiment-5-1,2344622,decoding,1.253584,0.75,0.41325,0.26863,4,3,False,0.2,1.0,-1.0,1.0,2.0,13,8,0.6154,0.141791,,,,,,,,,,,,,there is a cat laying on a blue cover on the side of a person which we can only see the hand of; this hand is on the keyboard of a computer,41848.0,25.0,Which description best matches the image?
Encode-Decode_Experiment-5-1,2349475,decoding,,0.0,0.0,0.0,9,0,False,0.2,1.0,,,1.0,12,12,1.0,0.040332,,,,,,,,,,,,,"3 friends are around a blender, there are 2 boys and one girl and one of the boys is riding a bike to power the blender, whilist the girl is holding the top of the blender. the liquid inside the blender is green",68607.0,26.0,Which description best matches the image?
Encode-Decode_Experiment-5-1,2394020,decoding,,1.0,1.0,0.0,2,2,False,1.0,2.0,1.0,1.0,2.0,9,9,1.0,0.170952,,,,,,,,,,,,,"2 men riding brown horses along the beach with cowboy hats on. the waters are blue and one horse is slightly ahead of the other,",42785.0,27.0,Which description best matches the image?
Encode-Decode_Experiment-5-1,2356125,decoding,,0.0,0.0,0.0,1,0,True,0.5,1.0,,,1.0,11,11,1.0,0.134885,,,,,,,,,,,,,"4 workers, 2 of them are trying to get a large bag which had red, blue and green stripes loaded onto the conveyor belt. there are 3 women and 1 man",67707.0,28.0,Which description best matches the image?
Encode-Decode_Experiment-5-1,2385851,decoding,,0.0,0.0,0.0,3,0,False,0.666667,2.0,0.333333,1.0,3.0,8,8,1.0,0.172552,,,,,,,,,,,,,2 men holding each a large red suitcae walking underneath a covered pathway. They are carrying it on their backs,38561.0,29.0,Which description best matches the image?
Encode-Decode_Experiment-5-1,2383555,decoding,0.835797,0.25,0.14275,0.128321,8,2,False,0.375,3.0,0.2,0.816667,5.0,12,12,1.0,0.186184,,,,,,,,,,,,,"s family is on a raft boat ,ade with sticks, with a girl at the front holding a younger boy, a man at the back of the image and a woman at the very back rowing",43155.0,30.0,Which description best matches the image?
Encode-Decode_Experiment-6-1,2362704,encoding,-1.252392,0.05,0.1685,0.094619,20,1,False,,,,,,29,29,1.0,0.190956,1.0,3923.0,2.0,2.0,How many bears are in the scene?,1.0,3876.0,4.0,4.0,What are the bears doing with the pumpkins?,1.0,2.0,,,,
Encode-Decode_Experiment-6-1,2371471,encoding,-0.121063,0.318182,0.331545,0.110386,22,7,False,,,,,,32,32,1.0,0.45594,1.0,8493.0,3.0,3.0,What is nearest to the motorcyclists?,1.0,10256.0,2.0,2.0,What stunt is one motorcyclist performing?,2.0,2.0,,,,
Encode-Decode_Experiment-6-1,2360001,encoding,0.102176,0.16,0.1524,0.074382,25,4,False,,,,,,32,31,0.9688,0.271626,1.0,8018.0,4.0,4.0,Where are the men standing?,1.0,6842.0,4.0,4.0,What are the workers doing to the clock?,3.0,2.0,,,,
Encode-Decode_Experiment-6-1,2383555,encoding,1.31108,0.185185,0.103926,0.061979,27,5,False,,,,,,34,33,0.9706,0.20003,1.0,5774.0,2.0,2.0,Who is holding the child in the boat?,1.0,4611.0,4.0,4.0,What is the woman at the back doing in the boat?,5.0,2.0,,,,
Encode-Decode_Experiment-6-1,2347025,encoding,1.840849,0.7,0.4652,0.12755,20,14,False,,,,,,33,33,1.0,0.121724,1.0,2759.0,2.0,2.0,Who is holding the umbrella in the scene?,1.0,4820.0,1.0,1.0,Where is the baby in relation to the mother?,6.0,2.0,,,,
Encode-Decode_Experiment-6-1,2367132,encoding,4.928772,0.888889,0.268111,0.12595,18,16,False,,,,,,33,32,0.9697,0.115855,1.0,2984.0,2.0,2.0,How many men are playing in the scene?,1.0,4237.0,4.0,4.0,In which hand(s) are the men holding the controllers?,7.0,2.0,,,,
Encode-Decode_Experiment-6-1,2349475,encoding,3.032095,0.3125,0.084125,0.075319,16,5,False,,,,,,34,29,0.8529,0.08036,1.0,10831.0,3.0,3.0,Which part of the blender is the woman holding?,1.0,6520.0,1.0,1.0,What is the man doing to power the blender?,8.0,2.0,,,,
Encode-Decode_Experiment-6-1,2344622,encoding,0.912357,0.5,0.384937,0.126116,16,8,False,,,,,,37,31,0.8378,0.173965,1.0,3798.0,4.0,4.0,What is the cat resting its head on?,1.0,5496.0,2.0,2.0,Where is the cat located?,9.0,2.0,,,,
Encode-Decode_Experiment-6-1,2374670,encoding,1.378534,0.521739,0.365609,0.113258,23,12,False,,,,,,32,31,0.9688,0.198687,1.0,5062.0,1.0,1.0,What vehicle sprays water in the scene?,0.0,11085.0,4.0,3.0,Where is the man standing relative to the vehicle?,10.0,1.0,,,,
Encode-Decode_Experiment-6-1,2370664,encoding,1.513456,0.333333,0.185611,0.097606,18,6,False,,,,,,35,35,1.0,0.163746,1.0,5787.0,1.0,1.0,Where are the people located in the scene?,1.0,4142.0,4.0,4.0,How many donuts are in the scene?,11.0,2.0,,,,
Encode-Decode_Experiment-6-1,2385851,encoding,-1.228213,0.08,0.18224,0.083243,25,2,False,,,,,,32,32,1.0,0.19194,1.0,4803.0,2.0,2.0,What are the men doing with the suitcases?,0.0,10605.0,1.0,3.0,Where are the men?,12.0,1.0,,,,
Encode-Decode_Experiment-6-1,2385550,encoding,2.165142,0.26087,0.10687,0.071127,23,6,False,,,,,,29,29,1.0,0.251104,1.0,3899.0,4.0,4.0,Where are the tangerines in the scene?,1.0,9415.0,3.0,3.0,Which side of the frame is the boy on? (from your perspective),13.0,2.0,,,,
Encode-Decode_Experiment-6-1,2348899,encoding,4.480739,0.75,0.285917,0.103573,24,18,False,,,,,,35,35,1.0,0.182372,0.0,11975.0,4.0,1.0,Where is the woman located relative to the man? (from your perspective),1.0,5300.0,4.0,4.0,What is the woman doing?,14.0,1.0,,,,
Encode-Decode_Experiment-6-1,2412687,encoding,0.955977,0.466667,0.333867,0.138915,15,7,False,,,,,,30,27,0.9,0.16231,1.0,4024.0,4.0,4.0,What is the dog biting onto in the scene?,0.0,11397.0,2.0,3.0,What is the human's body position?,15.0,1.0,,,,
Encode-Decode_Experiment-6-1,2410309,encoding,0.220891,0.263158,0.238263,0.112701,19,5,False,,,,,,28,28,1.0,0.247946,0.0,8622.0,1.0,2.0,What is the baby touching?,1.0,4545.0,4.0,4.0,How many laptops or electronic devices are visible?,16.0,1.0,,,,
Encode-Decode_Experiment-6-1,2369373,encoding,0.604609,0.434783,0.364826,0.115705,23,10,False,,,,,,31,30,0.9677,0.247005,1.0,3541.0,3.0,3.0,What tool is the chef using?,1.0,9842.0,3.0,3.0,What is the appearance of the oven?,17.0,2.0,,,,
Encode-Decode_Experiment-6-1,2379478,encoding,1.9592,0.428571,0.220619,0.106141,21,9,False,,,,,,32,29,0.9062,0.400067,1.0,6503.0,2.0,2.0,How many babies are visible in the scene?,1.0,4221.0,4.0,4.0,What is the position of the babies?,18.0,2.0,,,,
Encode-Decode_Experiment-6-1,150472,encoding,0.432376,0.36,0.3118,0.111477,25,9,False,,,,,,34,34,1.0,0.091321,1.0,4454.0,2.0,2.0,Where is the pizza slice located?,1.0,3221.0,4.0,4.0,How many women are in the scene?,20.0,2.0,,,,
Encode-Decode_Experiment-6-1,2347400,encoding,2.0946,0.421053,0.199158,0.105937,19,8,False,,,,,,33,29,0.8788,0.192583,1.0,3524.0,1.0,1.0,What are the men sitting on in the scene?,1.0,2808.0,3.0,3.0,What are the men doing with the wine?,21.0,2.0,,,,
Encode-Decode_Experiment-6-1,2345035,encoding,-0.162757,0.214286,0.228821,0.08931,28,6,False,,,,,,36,34,0.9444,0.245816,1.0,10934.0,3.0,3.0,What are the people doing with the football?,1.0,4688.0,2.0,2.0,Who runs toward the football in the scene?,23.0,2.0,,,,
Encode-Decode_Experiment-6-1,2356125,encoding,2.045944,0.529412,0.285706,0.119117,17,9,False,,,,,,35,28,0.8,0.322228,1.0,5057.0,1.0,1.0,Where is the luggage being moved to?,1.0,4733.0,2.0,2.0,How many uniformed staff are moving the luggage?,24.0,2.0,,,,
Encode-Decode_Experiment-6-1,2387122,encoding,-0.73591,0.363636,0.453727,0.122421,22,8,False,,,,,,29,27,0.931,0.155136,1.0,5461.0,3.0,3.0,Where is the polar bear located in the scene?,1.0,9764.0,1.0,1.0,What is the polar bear doing next to the enclosure edge?,25.0,2.0,,,,
Encode-Decode_Experiment-6-1,2397102,encoding,3.510853,0.56,0.22148,0.096421,25,14,False,,,,,,36,36,1.0,0.127659,1.0,3137.0,1.0,1.0,What are the couple doing with the cake?,1.0,4171.0,3.0,3.0,What is the man holding besides the cake knife?,26.0,2.0,,,,
Encode-Decode_Experiment-6-1,2408717,encoding,0.306891,0.380952,0.343905,0.120719,21,8,False,,,,,,35,24,0.6857,0.206332,1.0,4081.0,2.0,2.0,How many surfers are in the scene?,1.0,4866.0,3.0,3.0,What are the surfers doing with the surfboards?,31.0,2.0,,,,
Encode-Decode_Experiment-6-1,2411268,encoding,2.792973,0.545455,0.248773,0.106224,22,12,False,,,,,,35,34,0.9714,0.307716,1.0,4557.0,2.0,2.0,What is the child holding while picking fruit?,1.0,7083.0,4.0,4.0,Where is the fruit branch relative to the child?,33.0,2.0,,,,
Encode-Decode_Experiment-6-1,2394020,encoding,1.535123,0.666667,0.440733,0.147176,15,10,False,,,,,,31,27,0.871,0.29524,1.0,4951.0,2.0,2.0,What are the riders wearing on their heads?,1.0,3980.0,1.0,1.0,Where is the scene taking place?,37.0,2.0,,,,
Encode-Decode_Experiment-6-1,2409918,encoding,3.263718,0.590909,0.248636,0.104872,22,13,False,,,,,,37,30,0.8108,0.158141,1.0,6601.0,4.0,4.0,Where are the elephants in the scene?,1.0,14236.0,2.0,2.0,What is the elephant on the right (from your perspective) doing with its trunk?,38.0,2.0,,,,
Encode-Decode_Experiment-6-1,2350974,encoding,0.28243,0.222222,0.193056,0.10327,18,4,False,,,,,,34,25,0.7353,0.194641,1.0,5826.0,4.0,4.0,Between which two objects is the child standing?,1.0,5163.0,1.0,1.0,What is the child up against?,39.0,2.0,,,,
Encode-Decode_Experiment-6-1,2356991,encoding,1.320679,0.310345,0.198172,0.084935,29,9,False,,,,,,37,37,1.0,0.148127,1.0,10269.0,2.0,2.0,What is the current action of the gloved player on the base?,1.0,9255.0,1.0,1.0,How is the player on the left (from your perspective) reaching the base?,49.0,2.0,,,,
Encode-Decode_Experiment-6-1,2386442,encoding,2.210447,0.578947,0.305474,0.123719,19,11,False,,,,,,36,36,1.0,0.136083,1.0,5637.0,1.0,1.0,Who is brushing their teeth in the scene?,1.0,8392.0,3.0,3.0,What is the person on the right wearing?,53.0,2.0,,,,
Encode-Decode_Experiment-6-1,2385851,decoding,0.71386,0.375,0.260375,0.160571,8,3,False,0.5,3.0,0.2,0.816667,5.0,16,16,1.0,0.18237,,,,,,,,,,,,,two men carrying a red suitcase each underneath a covered pathway.,47205.0,1.0,Which description best matches the image?
Encode-Decode_Experiment-6-1,2348899,decoding,,1.0,1.0,0.0,5,5,False,1.0,2.0,1.0,1.0,2.0,10,10,1.0,0.189992,,,,,,,,,,,,,"three men, one sitting down with a loose pink tie. there is a blonde girl to the right of him touching his tie. they;re all drinking and laughing",43181.0,2.0,Which description best matches the image?
Encode-Decode_Experiment-6-1,2347025,decoding,,1.0,1.0,0.0,2,2,False,1.0,3.0,1.0,0.333333,3.0,7,6,0.8571,0.102107,,,,,,,,,,,,,there is an older looking asian woman carrying a baby on her back. the baby is carrying a pink umbrella.,33336.0,3.0,Which description best matches the image?
Encode-Decode_Experiment-6-1,2379478,decoding,-0.063492,0.333333,0.353,0.309752,3,1,False,0.333333,1.0,-1.0,1.0,2.0,9,9,1.0,0.731697,,,,,,,,,,,,,"it is a black and white picture of two babies laying down on a bed, each has its own bottle of baby milk and they;re drinking it.",35508.0,4.0,Which description best matches the image?
Encode-Decode_Experiment-6-1,2356125,decoding,,,,,0,0,True,1.0,1.0,,,1.0,11,11,1.0,0.096,,,,,,,,,,,,,"there are 3 flight attendants shown, and one pilot. 2 of the flight attendants are moving a suitcase to a black conveyor belt where other suitcases are displayed. the suitcase is big and wrapped in a cellophane type of material.",85753.0,5.0,Which description best matches the image?
Encode-Decode_Experiment-6-1,2412687,decoding,,0.0,0.0,0.0,1,0,True,0.5,1.0,,,1.0,12,11,0.9167,0.024125,,,,,,,,,,,,,i dont remember a dog.,56652.0,6.0,Which description best matches the image?
Encode-Decode_Experiment-6-1,2409918,decoding,-1.952861,0.2,0.6612,0.236166,5,1,False,1.0,3.0,1.0,0.333333,3.0,15,14,0.9333,0.063637,,,,,,,,,,,,,"there were two elephants in water, the one on the left had a man standing on top of it, the one on the right had a man sitting on top of it and was eating plants.",47029.0,7.0,Which description best matches the image?
Encode-Decode_Experiment-6-1,2410309,decoding,-0.239447,0.625,0.671125,0.192631,8,5,False,0.666667,2.0,0.333333,1.0,3.0,12,12,1.0,0.153749,,,,,,,,,,,,,"it was a woman and a baby on a couch, they both had laptops. the woman was holding one and the baby was next to one, touching the keyboard.",40828.0,8.0,Which description best matches the image?
Encode-Decode_Experiment-6-1,2362704,decoding,,0.0,0.0,0.0,7,0,False,0.666667,2.0,1.0,1.0,2.0,12,12,1.0,0.122563,,,,,,,,,,,,,there were 2 black bears eating pumpkins. one was looking towards the camera.,28469.0,9.0,Which description best matches the image?
Encode-Decode_Experiment-6-1,2360001,decoding,1.99768,0.461538,0.218615,0.121603,13,6,False,0.5,4.0,-0.333333,0.381349,7.0,15,15,1.0,0.25415,,,,,,,,,,,,,"it was a black and white picture of 4 men raising a clock with the word ZENITH on it, they were on a scaffold.",44066.0,10.0,Which description best matches the image?
Encode-Decode_Experiment-6-1,150472,decoding,,0.0,0.0,0.0,6,0,False,0.5,2.0,0.0,1.0,4.0,11,11,1.0,0.143513,,,,,,,,,,,,,two women taking a selfie while holding paper plates with a slcie of pizza each. one woman had her mouth open.,32969.0,11.0,Which description best matches the image?
Encode-Decode_Experiment-6-1,2344622,decoding,,,,,0,0,True,1.0,1.0,,,1.0,11,11,1.0,0.184339,,,,,,,,,,,,,there was a cat laying on a blue blanket to the left of a keyboard that had a hand on it.,25836.0,12.0,Which description best matches the image?
Encode-Decode_Experiment-6-1,2345035,decoding,-0.689531,0.1,0.2024,0.148507,10,1,False,0.4,2.0,0.0,1.0,4.0,17,15,0.8824,0.222534,,,,,,,,,,,,,"there were two girls, one was earing the number 20 and the other was wearing the number 3 and they had black knee high socks on and sports kit. they were from opposite teams and were chasing a football.",45787.0,13.0,Which description best matches the image?
Encode-Decode_Experiment-6-1,2383555,decoding,-0.767298,0.0,0.101714,0.132562,7,0,False,0.6,3.0,0.666667,0.333333,4.0,12,12,1.0,0.127221,,,,,,,,,,,,,3 women and a baby on a boat in like a river. the woman in the front was carrying the baby and woman in the back was rowing.,33645.0,14.0,Which description best matches the image?
Encode-Decode_Experiment-6-1,2408717,decoding,-0.482521,0.4,0.4923,0.191287,10,4,False,0.5,2.0,-0.333333,1.0,3.0,16,16,1.0,0.187457,,,,,,,,,,,,,"4 women carrying surfboards from the sand into the sea, the two in the front had neon green surfboards.",32628.0,15.0,Which description best matches the image?
Encode-Decode_Experiment-6-1,2371471,decoding,1.437865,1.0,0.6666,0.231872,5,5,False,0.666667,2.0,1.0,1.0,2.0,14,13,0.9286,0.193007,,,,,,,,,,,,,"two stuntmen on motorcycles were in the air above a dirt ramp. one was still on the mototrcycle, the other was doing a handstand, i think they were red.",45165.0,16.0,Which description best matches the image?
Encode-Decode_Experiment-6-1,2367132,decoding,,,,,0,0,True,1.0,1.0,,,1.0,11,11,1.0,0.040404,,,,,,,,,,,,,two men holding videogame controllers standing up. there was also a girl wearing a pink shirt in the background on the couch.,31840.0,17.0,Which description best matches the image?
Encode-Decode_Experiment-6-1,2394020,decoding,,1.0,1.0,0.0,1,1,True,1.0,2.0,1.0,1.0,2.0,8,8,1.0,0.110969,,,,,,,,,,,,,two men riding horses on the beach. theyre both wearing cowboy hats and its a landscape image.,37217.0,18.0,Which description best matches the image?
Encode-Decode_Experiment-6-1,2349475,decoding,,0.0,0.0,0.0,3,0,False,0.333333,1.0,,,1.0,11,11,1.0,0.066824,,,,,,,,,,,,,there is a woman holding the lid of a blender and a man powering it using his bicycle.,27434.0,19.0,Which description best matches the image?
Encode-Decode_Experiment-6-1,2369373,decoding,,,,,0,0,True,1.0,1.0,,,1.0,11,11,1.0,0.084724,,,,,,,,,,,,,there is a chef moving pizza using a pizza plate into a pizza oven thaat has the design of an open mouth as the oven.,41891.0,20.0,Which description best matches the image?
Encode-Decode_Experiment-6-1,2347400,decoding,,0.0,0.0,0.0,1,0,True,0.0,0.0,,,0.0,7,7,1.0,0.029833,,,,,,,,,,,,,two men on a couch sniffing two glasses of wine.,20320.0,21.0,Which description best matches the image?
Encode-Decode_Experiment-6-1,2370664,decoding,,,,,0,0,True,1.0,1.0,,,1.0,8,7,0.875,0.116474,,,,,,,,,,,,,3 people in a close up photo showing holding a donut each.,32453.0,22.0,Which description best matches the image?
Encode-Decode_Experiment-6-1,2350974,decoding,0.60445,0.5,0.3355,0.272148,4,2,False,0.666667,2.0,0.333333,1.0,3.0,10,10,1.0,0.296096,,,,,,,,,,,,,A SMALL CHILD BETWEEN A RED CAR AND A BLUE MOTORCYCLE SHOWN TO BE DRINKING LIKE AN ENERGY DRINK.,47620.0,23.0,Which description best matches the image?
Encode-Decode_Experiment-6-1,2397102,decoding,,0.0,0.0,0.0,2,0,False,1.0,2.0,1.0,1.0,2.0,16,16,1.0,0.056933,,,,,,,,,,,,,"A COUPLE, MAYBE AT A WEDDING, THEYRE BOTH HOLDING THE KNIFE AND CUTTING THE FIRST PIECE OF THE CAKE. THE MAN IS ALSO HOLDING BEER.",33845.0,24.0,Which description best matches the image?
Encode-Decode_Experiment-6-1,2374670,decoding,,0.0,0.0,0.0,3,0,False,1.0,2.0,1.0,1.0,2.0,14,12,0.8571,0.148711,,,,,,,,,,,,,"a red truck spraying water onto a field, there is a man standing at the back of it.",40420.0,25.0,Which description best matches the image?
