SubjectID,StimID,Phase,svg_z_all,svg_obs_all,svg_null_mean_all,svg_null_std_all,svg_z_inter,svg_obs_inter,svg_null_mean_inter,svg_null_std_inter,n_transitions,n_relational_all,n_relational_inter,low_n,lcs_enc_dec,lcs_len_enc_dec,tau_enc_dec,tau_p_enc_dec,n_shared_enc_dec,n_fixations,n_aoi,aoi_prop,mean_salience,enc_accuracy,enc_rt_ms,enc_response,enc_correct_key,enc_trial_index,q2_accuracy,q2_rt_ms,q2_confidence,q2_present_order,q1_accuracy,q1_rt_ms,q1_confidence,q1_present_order,dec_total_correct,dec_trial_index
Encode-Decode_Experiment-1-1,2386442,encoding,1.38455,0.75,0.4675,0.204037,1.471047,0.75,0.449,0.204616,8,6,6,False,,,,,,17,17,1.0,0.12762,0.0,14150.0,4.0,1.0,1.0,,,,,,,,,,
Encode-Decode_Experiment-1-1,2367132,encoding,0.727903,0.428571,0.277429,0.207642,1.040942,0.285714,0.132286,0.147394,7,3,2,False,,,,,,11,10,0.9091,0.088971,1.0,6795.0,3.0,3.0,2.0,,,,,,,,,,
Encode-Decode_Experiment-1-1,2347025,encoding,0.712363,0.583333,0.465583,0.165295,1.581254,0.416667,0.209667,0.130909,12,7,5,False,,,,,,18,16,0.8889,0.111727,0.0,7559.0,2.0,3.0,3.0,,,,,,,,,,
Encode-Decode_Experiment-1-1,2369373,encoding,1.593717,0.666667,0.412667,0.159376,0.899153,0.25,0.146583,0.115016,12,8,3,False,,,,,,17,16,0.9412,0.226377,0.0,6860.0,3.0,2.0,4.0,,,,,,,,,,
Encode-Decode_Experiment-1-1,2394020,encoding,-0.128404,0.5,0.5233,0.181458,0.765775,0.3,0.1917,0.141425,10,5,3,False,,,,,,13,12,0.9231,0.286664,1.0,4830.0,1.0,1.0,5.0,,,,,,,,,,
Encode-Decode_Experiment-1-1,2345035,encoding,-0.650724,0.1875,0.276437,0.136675,-0.425851,0.125,0.171687,0.109633,16,3,2,False,,,,,,20,19,0.95,0.166657,1.0,6985.0,4.0,4.0,6.0,,,,,,,,,,
Encode-Decode_Experiment-1-1,2408717,encoding,0.336695,0.4,0.3373,0.186222,0.126285,0.3,0.2775,0.178168,10,4,3,False,,,,,,15,14,0.9333,0.332838,1.0,3254.0,4.0,4.0,7.0,,,,,,,,,,
Encode-Decode_Experiment-1-1,2344622,encoding,0.339839,0.222222,0.178333,0.129146,0.057354,0.111111,0.104444,0.116237,9,2,1,False,,,,,,17,15,0.8824,0.218495,1.0,3160.0,3.0,3.0,8.0,,,,,,,,,,
Encode-Decode_Experiment-1-1,2356991,encoding,0.621953,0.307692,0.216,0.147426,-0.333434,0.076923,0.111308,0.103123,13,4,1,False,,,,,,19,17,0.8947,0.107174,1.0,4630.0,2.0,2.0,9.0,,,,,,,,,,
Encode-Decode_Experiment-1-1,2356125,encoding,0.619282,0.444444,0.334222,0.177984,0.452553,0.111111,0.069,0.093052,9,4,1,False,,,,,,14,14,1.0,0.178602,1.0,4352.0,3.0,3.0,10.0,,,,,,,,,,
Encode-Decode_Experiment-1-1,150472,encoding,1.499538,0.888889,0.601889,0.191392,1.459851,0.555556,0.294667,0.178709,9,8,5,False,,,,,,15,15,1.0,0.120658,1.0,3349.0,3.0,3.0,11.0,,,,,,,,,,
Encode-Decode_Experiment-1-1,2348899,encoding,3.083425,0.75,0.284833,0.15086,3.416827,0.75,0.247,0.147213,12,9,9,False,,,,,,18,18,1.0,0.254501,1.0,5884.0,4.0,4.0,12.0,,,,,,,,,,
Encode-Decode_Experiment-1-1,2349475,encoding,0.670064,0.2,0.135467,0.096309,0.621854,0.133333,0.083533,0.080083,15,3,2,False,,,,,,20,20,1.0,0.063677,1.0,14244.0,4.0,4.0,13.0,,,,,,,,,,
Encode-Decode_Experiment-1-1,2347400,encoding,0.018313,0.2,0.1976,0.131051,-0.036887,0.2,0.2049,0.132838,10,2,2,False,,,,,,16,15,0.9375,0.267378,1.0,2983.0,4.0,4.0,14.0,,,,,,,,,,
Encode-Decode_Experiment-1-1,2411268,encoding,0.905196,0.625,0.452125,0.190981,0.85836,0.625,0.46575,0.185528,8,5,5,False,,,,,,14,14,1.0,0.206753,1.0,4092.0,4.0,4.0,15.0,,,,,,,,,,
Encode-Decode_Experiment-1-1,2374670,encoding,-0.370764,0.166667,0.2195,0.142499,-0.143824,0.166667,0.185917,0.133844,12,2,2,False,,,,,,15,15,1.0,0.223283,1.0,2124.0,1.0,1.0,16.0,,,,,,,,,,
Encode-Decode_Experiment-1-1,2385550,encoding,-0.484379,0.125,0.19725,0.14916,,0.0,0.0,0.0,8,1,0,False,,,,,,14,12,0.8571,0.200555,1.0,4779.0,4.0,4.0,17.0,,,,,,,,,,
Encode-Decode_Experiment-1-1,2350974,encoding,0.722951,0.5,0.340833,0.220162,0.822062,0.5,0.3235,0.214704,6,3,3,False,,,,,,16,11,0.6875,0.299342,0.0,5576.0,1.0,4.0,18.0,,,,,,,,,,
Encode-Decode_Experiment-1-1,2387122,encoding,1.098071,0.9,0.7399,0.145801,-0.70536,0.2,0.3207,0.171118,10,9,2,False,,,,,,17,15,0.8824,0.136978,1.0,4692.0,2.0,2.0,19.0,,,,,,,,,,
Encode-Decode_Experiment-1-1,2385851,encoding,-0.850753,0.066667,0.149333,0.097169,-0.474087,0.066667,0.1082,0.087607,15,1,1,False,,,,,,18,18,1.0,0.181685,0.0,3092.0,2.0,1.0,20.0,,,,,,,,,,
Encode-Decode_Experiment-1-1,2383555,encoding,0.043004,0.1,0.0955,0.104641,0.704921,0.1,0.0471,0.075044,10,1,1,False,,,,,,12,12,1.0,0.180646,1.0,5101.0,3.0,3.0,21.0,,,,,,,,,,
Encode-Decode_Experiment-1-1,2412687,encoding,,0.0,0.0,0.0,,0.0,0.0,0.0,1,0,0,True,,,,,,12,9,0.75,0.130188,1.0,11981.0,3.0,3.0,22.0,,,,,,,,,,
Encode-Decode_Experiment-1-1,2409918,encoding,1.911907,0.875,0.4985,0.196924,1.090223,0.5,0.298875,0.184481,8,7,4,False,,,,,,17,14,0.8235,0.145807,1.0,1882.0,1.0,1.0,23.0,,,,,,,,,,
Encode-Decode_Experiment-1-1,2397102,encoding,1.197418,0.461538,0.291308,0.142165,1.747844,0.384615,0.167615,0.124153,13,6,5,False,,,,,,17,17,1.0,0.12376,1.0,4107.0,3.0,3.0,24.0,,,,,,,,,,
Encode-Decode_Experiment-1-1,2360001,encoding,0.816706,0.111111,0.047778,0.077547,,0.0,0.0,0.0,9,1,0,False,,,,,,13,13,1.0,0.326879,1.0,4779.0,2.0,2.0,25.0,,,,,,,,,,
Encode-Decode_Experiment-1-1,2410309,encoding,0.991661,0.4,0.267933,0.133177,1.298271,0.2,0.089933,0.084779,15,6,3,False,,,,,,21,21,1.0,0.235682,1.0,4952.0,2.0,2.0,26.0,,,,,,,,,,
Encode-Decode_Experiment-1-1,2370664,encoding,1.33144,0.545455,0.325455,0.165235,2.611185,0.454545,0.144273,0.118825,11,6,5,False,,,,,,16,16,1.0,0.167246,1.0,2518.0,1.0,1.0,27.0,,,,,,,,,,
Encode-Decode_Experiment-1-1,2379478,encoding,1.591397,0.666667,0.389333,0.17427,1.592012,0.444444,0.200556,0.153195,9,6,4,False,,,,,,13,13,1.0,0.404022,1.0,2037.0,2.0,2.0,28.0,,,,,,,,,,
Encode-Decode_Experiment-1-1,2371471,encoding,1.392861,0.3,0.1339,0.119251,,0.0,0.0,0.0,10,3,0,False,,,,,,16,16,1.0,0.254037,1.0,6993.0,3.0,3.0,29.0,,,,,,,,,,
Encode-Decode_Experiment-1-1,2362704,encoding,-1.340194,0.0,0.137692,0.102741,-0.777795,0.0,0.049846,0.064086,13,0,0,False,,,,,,18,18,1.0,0.14711,1.0,2589.0,1.0,1.0,30.0,,,,,,,,,,
Encode-Decode_Experiment-1-1,2356125,decoding,,0.0,0.0,0.0,,0.0,0.0,0.0,3,0,0,False,0.666667,2.0,1.0,1.0,2.0,15,14,0.9333,0.048053,,,,,,1.0,3802.0,2.0,2.0,1.0,3702.0,4.0,1.0,2.0,1.0
Encode-Decode_Experiment-1-1,2347400,decoding,,0.0,0.0,0.0,,0.0,0.0,0.0,3,0,0,False,0.25,1.0,-1.0,1.0,2.0,11,11,1.0,0.072117,,,,,,1.0,3607.0,2.0,1.0,1.0,2954.0,4.0,2.0,2.0,2.0
Encode-Decode_Experiment-1-1,2367132,decoding,,0.0,0.0,0.0,,0.0,0.0,0.0,1,0,0,True,1.0,2.0,1.0,1.0,2.0,9,9,1.0,0.049972,,,,,,0.0,2633.0,1.0,2.0,1.0,2274.0,1.0,1.0,1.0,3.0
Encode-Decode_Experiment-1-1,2371471,decoding,,1.0,1.0,0.0,,1.0,1.0,0.0,1,1,1,True,0.5,1.0,,,1.0,7,7,1.0,0.051522,,,,,,1.0,5619.0,2.0,2.0,0.0,3950.0,4.0,1.0,1.0,4.0
Encode-Decode_Experiment-1-1,2411268,decoding,,0.0,0.0,0.0,,0.0,0.0,0.0,4,0,0,False,0.5,1.0,,,1.0,12,12,1.0,0.082449,,,,,,1.0,6793.0,4.0,1.0,0.0,5760.0,4.0,2.0,1.0,5.0
Encode-Decode_Experiment-1-1,2385550,decoding,1.805294,0.75,0.32375,0.236111,,0.0,0.0,0.0,4,3,0,False,0.25,1.0,,,1.0,7,6,0.8571,0.305564,,,,,,0.0,10753.0,2.0,1.0,1.0,3136.0,4.0,2.0,1.0,6.0
Encode-Decode_Experiment-1-1,2397102,decoding,,,,,,,,,0,0,0,True,1.0,1.0,,,1.0,9,9,1.0,0.04892,,,,,,1.0,7414.0,4.0,1.0,1.0,2062.0,4.0,2.0,2.0,7.0
Encode-Decode_Experiment-1-1,2386442,decoding,,0.0,0.0,0.0,,0.0,0.0,0.0,1,0,0,True,1.0,2.0,1.0,1.0,2.0,5,5,1.0,0.03885,,,,,,0.0,8797.0,1.0,1.0,0.0,8431.0,3.0,2.0,0.0,8.0
Encode-Decode_Experiment-1-1,2350974,decoding,1.866232,0.75,0.391875,0.191897,1.808383,0.75,0.39825,0.194511,8,6,6,False,0.25,1.0,,,1.0,13,13,1.0,0.156467,,,,,,0.0,3457.0,1.0,2.0,1.0,5185.0,1.0,1.0,1.0,9.0
Encode-Decode_Experiment-1-1,2383555,decoding,1.294222,0.333333,0.136167,0.152344,0.90401,0.166667,0.065333,0.112093,6,2,1,False,0.166667,1.0,-1.0,1.0,2.0,12,12,1.0,0.199914,,,,,,0.0,7568.0,1.0,2.0,0.0,4472.0,1.0,1.0,0.0,10.0
Encode-Decode_Experiment-1-1,2356991,decoding,,,,,,,,,0,0,0,True,1.0,1.0,,,1.0,10,10,1.0,0.004443,,,,,,1.0,7491.0,4.0,1.0,1.0,4085.0,4.0,2.0,2.0,11.0
Encode-Decode_Experiment-1-1,2387122,decoding,-0.440099,0.5,0.6635,0.371507,,0.0,0.0,0.0,2,1,0,False,0.666667,2.0,0.333333,1.0,3.0,12,11,0.9167,0.220736,,,,,,1.0,4136.0,4.0,1.0,1.0,3053.0,4.0,2.0,2.0,12.0
Encode-Decode_Experiment-1-1,2344622,decoding,,1.0,1.0,0.0,,0.0,0.0,0.0,1,1,0,True,1.0,2.0,1.0,1.0,2.0,10,10,1.0,0.142216,,,,,,1.0,2688.0,4.0,2.0,1.0,4268.0,4.0,1.0,2.0,13.0
Encode-Decode_Experiment-1-1,2360001,decoding,,0.0,0.0,0.0,,0.0,0.0,0.0,3,0,0,False,0.5,2.0,1.0,1.0,2.0,7,6,0.8571,0.15661,,,,,,1.0,2144.0,4.0,1.0,1.0,10428.0,2.0,2.0,2.0,14.0
Encode-Decode_Experiment-1-1,2349475,decoding,,,,,,,,,0,0,0,True,1.0,1.0,,,1.0,6,6,1.0,0.066383,,,,,,1.0,4647.0,4.0,2.0,1.0,6142.0,2.0,1.0,2.0,15.0
Encode-Decode_Experiment-1-1,2374670,decoding,,1.0,1.0,0.0,,1.0,1.0,0.0,3,3,3,False,0.666667,2.0,1.0,1.0,2.0,11,11,1.0,0.196646,,,,,,1.0,3305.0,4.0,2.0,0.0,5901.0,4.0,1.0,1.0,16.0
Encode-Decode_Experiment-1-1,150472,decoding,,0.0,0.0,0.0,,0.0,0.0,0.0,6,0,0,False,0.333333,1.0,-1.0,1.0,2.0,13,13,1.0,0.119899,,,,,,1.0,3010.0,4.0,1.0,1.0,3485.0,4.0,2.0,2.0,17.0
Encode-Decode_Experiment-1-1,2412687,decoding,,0.0,0.0,0.0,,0.0,0.0,0.0,2,0,0,False,1.0,2.0,1.0,1.0,2.0,10,10,1.0,0.03754,,,,,,1.0,12087.0,4.0,1.0,1.0,2412.0,4.0,2.0,2.0,18.0
Encode-Decode_Experiment-1-1,2369373,decoding,-1.085162,0.4,0.6558,0.235725,,0.0,0.0,0.0,5,2,0,False,0.666667,2.0,0.333333,1.0,3.0,11,11,1.0,0.133884,,,,,,0.0,4787.0,1.0,1.0,0.0,14437.0,3.0,2.0,0.0,19.0
Encode-Decode_Experiment-1-1,2347025,decoding,,1.0,1.0,0.0,,1.0,1.0,0.0,1,1,1,True,0.5,1.0,-1.0,1.0,2.0,12,12,1.0,0.108585,,,,,,1.0,3580.0,4.0,1.0,1.0,3050.0,4.0,2.0,2.0,20.0
Encode-Decode_Experiment-1-1,2370664,decoding,,1.0,1.0,0.0,,0.0,0.0,0.0,3,3,0,False,0.666667,2.0,1.0,1.0,2.0,13,13,1.0,0.113094,,,,,,0.0,3334.0,2.0,2.0,0.0,5174.0,1.0,1.0,0.0,21.0
Encode-Decode_Experiment-1-1,2410309,decoding,,0.0,0.0,0.0,,0.0,0.0,0.0,2,0,0,False,1.0,2.0,1.0,1.0,2.0,21,21,1.0,0.183814,,,,,,1.0,3168.0,4.0,1.0,1.0,3822.0,4.0,2.0,2.0,22.0
Encode-Decode_Experiment-1-1,2394020,decoding,0.354202,0.75,0.65575,0.266091,-0.350771,0.25,0.345,0.270832,4,3,1,False,1.0,3.0,1.0,0.333333,3.0,9,8,0.8889,0.192867,,,,,,1.0,3002.0,4.0,2.0,1.0,6284.0,4.0,1.0,2.0,23.0
Encode-Decode_Experiment-1-1,2348899,decoding,2.369161,0.769231,0.392538,0.158998,3.938627,0.538462,0.125,0.104976,13,10,7,False,0.5,3.0,1.0,0.333333,3.0,17,17,1.0,0.111402,,,,,,1.0,5598.0,4.0,1.0,1.0,3065.0,4.0,2.0,2.0,24.0
Encode-Decode_Experiment-1-1,2362704,decoding,-0.589359,0.0,0.034917,0.059245,-0.634966,0.0,0.036917,0.05814,12,0,0,False,0.25,2.0,-0.333333,1.0,3.0,17,17,1.0,0.121488,,,,,,1.0,3153.0,4.0,2.0,1.0,2183.0,4.0,1.0,2.0,25.0
Encode-Decode_Experiment-1-1,2409918,decoding,-0.609254,0.5,0.6635,0.268361,-0.306485,0.25,0.33075,0.263471,4,2,1,False,0.333333,1.0,-1.0,1.0,2.0,13,13,1.0,0.090043,,,,,,1.0,2724.0,4.0,1.0,1.0,7427.0,3.0,2.0,2.0,26.0
Encode-Decode_Experiment-1-1,2408717,decoding,-1.02598,0.285714,0.498714,0.207606,-1.088019,0.0,0.178,0.1636,7,2,0,False,0.25,1.0,,,1.0,13,13,1.0,0.094577,,,,,,1.0,3669.0,4.0,2.0,0.0,3251.0,4.0,1.0,1.0,27.0
Encode-Decode_Experiment-1-1,2385851,decoding,-0.859908,0.0,0.09975,0.116001,,0.0,0.0,0.0,8,0,0,False,0.6,3.0,1.0,0.333333,3.0,10,10,1.0,0.154989,,,,,,0.0,7410.0,2.0,1.0,1.0,2839.0,4.0,2.0,1.0,28.0
Encode-Decode_Experiment-1-1,2379478,decoding,-1.042553,0.333333,0.66,0.313333,0.017059,0.333333,0.328,0.312649,3,1,1,False,1.0,3.0,1.0,0.333333,3.0,9,9,1.0,0.730578,,,,,,1.0,3829.0,1.0,2.0,0.0,7423.0,1.0,1.0,1.0,29.0
Encode-Decode_Experiment-1-1,2345035,decoding,,0.0,0.0,0.0,,0.0,0.0,0.0,3,0,0,False,0.5,2.0,0.333333,1.0,3.0,9,9,1.0,0.210994,,,,,,1.0,7172.0,4.0,1.0,1.0,3050.0,4.0,2.0,2.0,30.0
Encode-Decode_Experiment-2-1,2369373,encoding,1.8329,1.0,0.657875,0.186658,,0.0,0.0,0.0,8,8,0,False,,,,,,12,12,1.0,0.639553,0.0,15237.0,3.0,2.0,1.0,,,,,,,,,,
Encode-Decode_Experiment-2-1,2385550,encoding,1.26953,0.5,0.300417,0.15721,0.625491,0.166667,0.10375,0.100588,12,6,2,False,,,,,,19,17,0.8947,0.292339,1.0,5620.0,4.0,4.0,2.0,,,,,,,,,,
Encode-Decode_Experiment-2-1,2383555,encoding,-0.327173,0.1,0.1404,0.123482,,0.0,0.0,0.0,10,1,0,False,,,,,,20,17,0.85,0.130901,1.0,3235.0,3.0,3.0,3.0,,,,,,,,,,
Encode-Decode_Experiment-2-1,150472,encoding,0.080248,0.583333,0.570083,0.165112,-0.52532,0.166667,0.24325,0.145784,12,7,2,False,,,,,,17,17,1.0,0.095501,1.0,4657.0,3.0,3.0,4.0,,,,,,,,,,
Encode-Decode_Experiment-2-1,2356125,encoding,2.967417,0.636364,0.215273,0.141905,1.84264,0.181818,0.051455,0.070748,11,7,2,False,,,,,,17,15,0.8824,0.262254,1.0,4486.0,3.0,3.0,5.0,,,,,,,,,,
Encode-Decode_Experiment-2-1,2408717,encoding,-0.436996,0.166667,0.22575,0.135204,0.169754,0.166667,0.148333,0.107999,12,2,2,False,,,,,,18,14,0.7778,0.249679,1.0,5579.0,4.0,4.0,6.0,,,,,,,,,,
Encode-Decode_Experiment-2-1,2350974,encoding,0.444331,0.6,0.496,0.23406,0.450883,0.6,0.4898,0.244409,5,3,3,False,,,,,,20,16,0.8,0.332084,1.0,7228.0,4.0,4.0,7.0,,,,,,,,,,
Encode-Decode_Experiment-2-1,2394020,encoding,0.625759,0.5,0.331,0.270072,,0.0,0.0,0.0,4,2,0,False,,,,,,12,10,0.8333,0.35012,1.0,5819.0,1.0,1.0,8.0,,,,,,,,,,
Encode-Decode_Experiment-2-1,2362704,encoding,-0.031085,0.090909,0.094091,0.10236,,0.0,0.0,0.0,11,1,0,False,,,,,,14,14,1.0,0.148821,1.0,4066.0,1.0,1.0,9.0,,,,,,,,,,
Encode-Decode_Experiment-2-1,2347400,encoding,0.189106,0.2,0.165,0.185081,,0.0,0.0,0.0,5,1,0,False,,,,,,12,11,0.9167,0.171852,0.0,4095.0,3.0,4.0,10.0,,,,,,,,,,
Encode-Decode_Experiment-2-1,2347025,encoding,-1.226662,0.444444,0.666778,0.181251,,0.0,0.0,0.0,9,4,0,False,,,,,,17,16,0.9412,0.055449,1.0,5308.0,3.0,3.0,11.0,,,,,,,,,,
Encode-Decode_Experiment-2-1,2409918,encoding,1.596085,0.75,0.506917,0.1523,0.691338,0.5,0.398417,0.146937,12,9,6,False,,,,,,18,18,1.0,0.198529,1.0,5110.0,1.0,1.0,12.0,,,,,,,,,,
Encode-Decode_Experiment-2-1,2371471,encoding,2.644378,0.625,0.19675,0.161947,1.34897,0.25,0.097875,0.112771,8,5,2,False,,,,,,14,14,1.0,0.372995,1.0,5609.0,3.0,3.0,13.0,,,,,,,,,,
Encode-Decode_Experiment-2-1,2367132,encoding,1.867404,0.6,0.2786,0.172111,2.045486,0.5,0.1957,0.148767,10,6,5,False,,,,,,15,14,0.9333,0.11577,1.0,6112.0,3.0,3.0,14.0,,,,,,,,,,
Encode-Decode_Experiment-2-1,2374670,encoding,0.264887,0.454545,0.409727,0.169197,0.34614,0.454545,0.399545,0.158895,11,5,5,False,,,,,,20,19,0.95,0.297143,1.0,3739.0,1.0,1.0,15.0,,,,,,,,,,
Encode-Decode_Experiment-2-1,2387122,encoding,1.571387,0.6,0.388267,0.134743,0.52447,0.2,0.143267,0.108173,15,9,3,False,,,,,,20,19,0.95,0.207941,1.0,5598.0,2.0,2.0,16.0,,,,,,,,,,
Encode-Decode_Experiment-2-1,2370664,encoding,1.583161,0.6,0.3287,0.171366,2.369165,0.4,0.1337,0.112402,10,6,4,False,,,,,,21,21,1.0,0.141475,1.0,3430.0,1.0,1.0,17.0,,,,,,,,,,
Encode-Decode_Experiment-2-1,2344622,encoding,1.501799,0.75,0.3465,0.268678,,0.0,0.0,0.0,4,3,0,False,,,,,,15,15,1.0,0.159389,1.0,3413.0,3.0,3.0,18.0,,,,,,,,,,
Encode-Decode_Experiment-2-1,2379478,encoding,2.583488,0.8,0.3438,0.176583,1.373886,0.3,0.1334,0.121262,10,8,3,False,,,,,,20,18,0.9,0.435683,1.0,3276.0,2.0,2.0,19.0,,,,,,,,,,
Encode-Decode_Experiment-2-1,2411268,encoding,2.245741,0.818182,0.465273,0.157146,2.256809,0.818182,0.466182,0.155972,11,9,9,False,,,,,,20,15,0.75,0.286232,1.0,4456.0,4.0,4.0,20.0,,,,,,,,,,
Encode-Decode_Experiment-2-1,2410309,encoding,0.743374,0.363636,0.250091,0.152743,0.663367,0.181818,0.110182,0.107989,11,4,2,False,,,,,,17,14,0.8235,0.212815,1.0,5533.0,2.0,2.0,21.0,,,,,,,,,,
Encode-Decode_Experiment-2-1,2348899,encoding,2.407658,0.555556,0.194556,0.149938,2.447185,0.555556,0.194111,0.147698,9,5,5,False,,,,,,16,16,1.0,0.14747,1.0,4638.0,4.0,4.0,22.0,,,,,,,,,,
Encode-Decode_Experiment-2-1,2397102,encoding,1.765804,0.545455,0.272182,0.154758,1.513339,0.272727,0.108455,0.10855,11,6,3,False,,,,,,16,15,0.9375,0.111097,1.0,3812.0,3.0,3.0,23.0,,,,,,,,,,
Encode-Decode_Experiment-2-1,2356991,encoding,-0.398728,0.222222,0.292556,0.176394,-0.576539,0.111111,0.199889,0.153984,9,2,1,False,,,,,,15,15,1.0,0.133198,1.0,4635.0,2.0,2.0,24.0,,,,,,,,,,
Encode-Decode_Experiment-2-1,2345035,encoding,-0.456179,0.125,0.17375,0.106866,-0.940733,0.0,0.067562,0.071819,16,2,0,False,,,,,,22,19,0.8636,0.223071,0.0,4899.0,2.0,4.0,25.0,,,,,,,,,,
Encode-Decode_Experiment-2-1,2386442,encoding,1.98837,0.818182,0.465727,0.177258,2.033404,0.818182,0.465364,0.173511,11,9,9,False,,,,,,17,17,1.0,0.117973,1.0,6094.0,1.0,1.0,26.0,,,,,,,,,,
Encode-Decode_Experiment-2-1,2349475,encoding,0.868403,0.5,0.3595,0.161791,0.850242,0.333333,0.213333,0.141136,12,6,4,False,,,,,,18,17,0.9444,0.071612,1.0,6498.0,4.0,4.0,27.0,,,,,,,,,,
Encode-Decode_Experiment-2-1,2360001,encoding,-0.07037,0.181818,0.191182,0.133063,-0.950075,0.0,0.098727,0.103915,11,2,0,False,,,,,,17,17,1.0,0.382343,1.0,7038.0,2.0,2.0,28.0,,,,,,,,,,
Encode-Decode_Experiment-2-1,2385851,encoding,-1.212128,0.0,0.1076,0.088769,-0.98622,0.0,0.069133,0.070099,15,0,0,False,,,,,,17,17,1.0,0.196011,1.0,5621.0,1.0,1.0,29.0,,,,,,,,,,
Encode-Decode_Experiment-2-1,2412687,encoding,0.672444,0.5,0.32075,0.266565,0.658191,0.5,0.32425,0.26702,4,2,2,False,,,,,,13,12,0.9231,0.153742,1.0,6147.0,3.0,3.0,30.0,,,,,,,,,,
Encode-Decode_Experiment-2-1,2408717,decoding,1.596354,0.75,0.333,0.26122,,0.0,0.0,0.0,4,3,0,False,0.666667,2.0,1.0,1.0,2.0,14,14,1.0,0.049776,,,,,,1.0,3827.0,4.0,2.0,1.0,1877.0,4.0,1.0,2.0,1.0
Encode-Decode_Experiment-2-1,2371471,decoding,,0.0,0.0,0.0,,0.0,0.0,0.0,8,0,0,False,1.0,2.0,1.0,1.0,2.0,15,15,1.0,0.447701,,,,,,1.0,4435.0,2.0,1.0,0.0,6203.0,2.0,2.0,1.0,2.0
Encode-Decode_Experiment-2-1,2383555,decoding,-0.671506,0.0,0.06225,0.092702,-0.648624,0.0,0.066125,0.101947,8,0,0,False,0.5,3.0,1.0,0.333333,3.0,16,16,1.0,0.141545,,,,,,0.0,4072.0,1.0,2.0,1.0,3702.0,3.0,1.0,1.0,3.0
Encode-Decode_Experiment-2-1,2344622,decoding,,,,,,,,,0,0,0,True,1.0,1.0,,,1.0,13,13,1.0,0.087727,,,,,,1.0,5361.0,3.0,2.0,1.0,3935.0,3.0,1.0,2.0,4.0
Encode-Decode_Experiment-2-1,2360001,decoding,0.969311,0.333333,0.168833,0.169708,0.982195,0.333333,0.165833,0.170536,6,2,2,False,0.5,2.0,0.333333,0.75,4.0,9,9,1.0,0.314649,,,,,,1.0,2867.0,4.0,1.0,1.0,4194.0,2.0,2.0,2.0,5.0
Encode-Decode_Experiment-2-1,2347025,decoding,0.498348,0.5,0.318,0.365207,,0.0,0.0,0.0,2,1,0,False,0.333333,1.0,,,1.0,14,13,0.9286,0.144512,,,,,,1.0,5332.0,3.0,1.0,1.0,2843.0,3.0,2.0,2.0,6.0
Encode-Decode_Experiment-2-1,2348899,decoding,,0.0,0.0,0.0,,0.0,0.0,0.0,3,0,0,False,0.5,1.0,,,1.0,18,18,1.0,0.065708,,,,,,0.0,3883.0,4.0,2.0,1.0,4532.0,4.0,1.0,1.0,7.0
Encode-Decode_Experiment-2-1,2410309,decoding,-0.734162,0.333333,0.508,0.237913,-0.734635,0.166667,0.3345,0.228458,6,2,1,False,0.75,3.0,0.666667,0.333333,4.0,12,12,1.0,0.120361,,,,,,0.0,3411.0,4.0,1.0,1.0,4491.0,4.0,2.0,1.0,8.0
Encode-Decode_Experiment-2-1,2412687,decoding,-0.804365,0.166667,0.344833,0.2215,-0.744874,0.166667,0.334833,0.225765,6,1,1,False,0.666667,2.0,1.0,1.0,2.0,16,16,1.0,0.233544,,,,,,0.0,5437.0,1.0,1.0,1.0,3402.0,4.0,2.0,1.0,9.0
Encode-Decode_Experiment-2-1,2370664,decoding,,1.0,1.0,0.0,,1.0,1.0,0.0,2,2,2,False,1.0,2.0,1.0,1.0,2.0,11,9,0.8182,0.173172,,,,,,1.0,4664.0,3.0,2.0,1.0,2368.0,4.0,1.0,2.0,10.0
Encode-Decode_Experiment-2-1,2385550,decoding,,1.0,1.0,0.0,,0.0,0.0,0.0,2,2,0,False,0.5,1.0,-1.0,1.0,2.0,7,7,1.0,0.37201,,,,,,0.0,5370.0,2.0,1.0,1.0,3059.0,4.0,2.0,1.0,11.0
Encode-Decode_Experiment-2-1,2394020,decoding,,,,,,,,,0,0,0,True,1.0,1.0,,,1.0,13,13,1.0,0.185377,,,,,,0.0,4255.0,1.0,2.0,1.0,4138.0,1.0,1.0,1.0,12.0
Encode-Decode_Experiment-2-1,2387122,decoding,,1.0,1.0,0.0,,0.0,0.0,0.0,1,1,0,True,1.0,2.0,1.0,1.0,2.0,6,6,1.0,0.047742,,,,,,1.0,5261.0,4.0,2.0,1.0,2379.0,4.0,1.0,2.0,13.0
Encode-Decode_Experiment-2-1,2367132,decoding,,0.0,0.0,0.0,,0.0,0.0,0.0,2,0,0,False,0.5,1.0,,,1.0,9,9,1.0,0.061694,,,,,,1.0,3860.0,4.0,1.0,1.0,2037.0,4.0,2.0,2.0,14.0
Encode-Decode_Experiment-2-1,2356125,decoding,-0.005846,0.333333,0.334444,0.190058,-0.435353,0.111111,0.177,0.151346,9,3,1,False,0.75,3.0,0.666667,0.333333,4.0,14,14,1.0,0.327246,,,,,,1.0,3899.0,3.0,2.0,1.0,3754.0,4.0,1.0,2.0,15.0
Encode-Decode_Experiment-2-1,2345035,decoding,,1.0,1.0,0.0,,1.0,1.0,0.0,3,3,3,False,0.5,1.0,,,1.0,6,6,1.0,0.232226,,,,,,1.0,5458.0,4.0,2.0,0.0,4179.0,1.0,1.0,1.0,16.0
Encode-Decode_Experiment-2-1,2349475,decoding,,0.0,0.0,0.0,,0.0,0.0,0.0,3,0,0,False,0.666667,2.0,1.0,1.0,2.0,6,6,1.0,0.07673,,,,,,1.0,4532.0,4.0,1.0,0.0,4248.0,2.0,2.0,1.0,17.0
Encode-Decode_Experiment-2-1,2386442,decoding,,0.0,0.0,0.0,,0.0,0.0,0.0,1,0,0,True,1.0,2.0,1.0,1.0,2.0,9,9,1.0,0.133197,,,,,,0.0,5427.0,1.0,1.0,1.0,4435.0,4.0,2.0,1.0,18.0
Encode-Decode_Experiment-2-1,2379478,decoding,0.732867,0.5,0.339833,0.218548,1.934952,0.5,0.167667,0.171753,6,3,3,False,0.5,2.0,0.333333,1.0,3.0,11,9,0.8182,0.596405,,,,,,1.0,1843.0,4.0,2.0,1.0,3251.0,2.0,1.0,2.0,19.0
Encode-Decode_Experiment-2-1,2362704,decoding,-0.398628,0.5,0.652,0.381308,,0.0,0.0,0.0,2,1,0,False,0.666667,2.0,1.0,1.0,2.0,9,9,1.0,0.277814,,,,,,1.0,4246.0,4.0,1.0,1.0,1334.0,3.0,2.0,2.0,20.0
Encode-Decode_Experiment-2-1,2397102,decoding,,0.0,0.0,0.0,,0.0,0.0,0.0,4,0,0,False,0.5,1.0,,,1.0,15,15,1.0,0.095861,,,,,,0.0,5530.0,1.0,2.0,1.0,2583.0,4.0,1.0,1.0,21.0
Encode-Decode_Experiment-2-1,2411268,decoding,,1.0,1.0,0.0,,1.0,1.0,0.0,3,3,3,False,0.666667,2.0,-0.333333,1.0,3.0,8,8,1.0,0.095722,,,,,,1.0,3335.0,4.0,2.0,0.0,4957.0,2.0,1.0,1.0,22.0
Encode-Decode_Experiment-2-1,2385851,decoding,-0.855739,0.0,0.068083,0.079561,-0.82903,0.0,0.069833,0.084235,12,0,0,False,0.5,3.0,0.666667,0.333333,4.0,15,15,1.0,0.266301,,,,,,0.0,4815.0,3.0,1.0,1.0,3595.0,4.0,2.0,1.0,23.0
Encode-Decode_Experiment-2-1,2374670,decoding,-0.48939,0.5,0.6795,0.366783,-0.429079,0.5,0.6615,0.376388,2,1,1,False,0.666667,2.0,-0.333333,1.0,3.0,6,6,1.0,0.177617,,,,,,1.0,3336.0,4.0,2.0,1.0,6944.0,1.0,1.0,2.0,24.0
Encode-Decode_Experiment-2-1,2347400,decoding,,0.0,0.0,0.0,,0.0,0.0,0.0,3,0,0,False,1.0,2.0,1.0,1.0,2.0,13,13,1.0,0.068132,,,,,,1.0,1767.0,4.0,2.0,1.0,2259.0,4.0,1.0,2.0,25.0
Encode-Decode_Experiment-2-1,2409918,decoding,-0.392176,0.75,0.83025,0.204628,-0.287814,0.25,0.3265,0.265796,4,3,1,False,0.5,2.0,-0.333333,1.0,3.0,11,11,1.0,0.206659,,,,,,1.0,5268.0,3.0,2.0,0.0,7715.0,1.0,1.0,1.0,26.0
Encode-Decode_Experiment-2-1,2350974,decoding,,1.0,1.0,0.0,,1.0,1.0,0.0,1,1,1,True,1.0,2.0,1.0,1.0,2.0,11,11,1.0,0.318336,,,,,,1.0,5846.0,4.0,1.0,1.0,2381.0,3.0,2.0,2.0,27.0
Encode-Decode_Experiment-2-1,2356991,decoding,,0.0,0.0,0.0,,0.0,0.0,0.0,2,0,0,False,0.5,1.0,,,1.0,12,12,1.0,0.09928,,,,,,1.0,4532.0,2.0,2.0,1.0,4274.0,4.0,1.0,2.0,28.0
Encode-Decode_Experiment-2-1,150472,decoding,-0.34441,0.6,0.6822,0.23867,-0.2492,0.6,0.661,0.244784,5,3,3,False,0.666667,2.0,1.0,1.0,2.0,12,12,1.0,0.03711,,,,,,1.0,5099.0,3.0,1.0,0.0,2765.0,1.0,2.0,1.0,29.0
Encode-Decode_Experiment-2-1,2369373,decoding,,1.0,1.0,0.0,,0.0,0.0,0.0,1,1,0,True,1.0,2.0,1.0,1.0,2.0,9,9,1.0,0.337382,,,,,,1.0,3249.0,4.0,1.0,0.0,4893.0,1.0,2.0,1.0,30.0
Encode-Decode_Experiment-9-1,2386442,encoding,2.296985,0.818182,0.427455,0.170104,2.266384,0.727273,0.335636,0.172802,11,9,8,False,,,,,,20,20,1.0,0.136838,1.0,9789.0,1.0,1.0,1.0,,,,,,,,,,
Encode-Decode_Experiment-9-1,2374670,encoding,-0.323434,0.333333,0.393,0.184479,-0.286395,0.333333,0.385222,0.18118,9,3,3,False,,,,,,16,16,1.0,0.240013,1.0,6341.0,1.0,1.0,2.0,,,,,,,,,,
Encode-Decode_Experiment-9-1,2367132,encoding,1.135309,0.333333,0.179583,0.135426,-0.273482,0.083333,0.11175,0.103907,12,4,1,False,,,,,,20,17,0.85,0.117278,1.0,6727.0,3.0,3.0,3.0,,,,,,,,,,
Encode-Decode_Experiment-9-1,2349475,encoding,-0.685112,0.0,0.048364,0.070592,-0.669077,0.0,0.045273,0.067664,11,0,0,False,,,,,,19,16,0.8421,0.071625,1.0,9001.0,4.0,4.0,4.0,,,,,,,,,,
Encode-Decode_Experiment-9-1,2356991,encoding,-0.152181,0.071429,0.083929,0.082139,-0.897638,0.0,0.065143,0.072571,14,1,0,False,,,,,,17,17,1.0,0.163255,1.0,8345.0,2.0,2.0,5.0,,,,,,,,,,
Encode-Decode_Experiment-9-1,2408717,encoding,0.737523,0.181818,0.109364,0.09824,0.757196,0.181818,0.106273,0.09977,11,2,2,False,,,,,,17,15,0.8824,0.334709,1.0,5651.0,4.0,4.0,6.0,,,,,,,,,,
Encode-Decode_Experiment-9-1,2411268,encoding,2.634216,0.7,0.2855,0.157352,2.669529,0.6,0.2127,0.145082,10,7,6,False,,,,,,20,16,0.8,0.210564,1.0,7049.0,4.0,4.0,7.0,,,,,,,,,,
Encode-Decode_Experiment-9-1,2362704,encoding,-0.689878,0.083333,0.15775,0.107869,-0.45081,0.0,0.020917,0.046398,12,1,0,False,,,,,,16,16,1.0,0.165409,1.0,3366.0,1.0,1.0,8.0,,,,,,,,,,
Encode-Decode_Experiment-9-1,2347025,encoding,-1.263444,0.333333,0.563,0.181778,-0.963241,0.111111,0.285444,0.180986,9,3,1,False,,,,,,15,14,0.9333,0.137271,1.0,7136.0,3.0,3.0,9.0,,,,,,,,,,
Encode-Decode_Experiment-9-1,2394020,encoding,-0.153958,0.4,0.428,0.181868,-1.165157,0.0,0.1386,0.118954,10,4,0,False,,,,,,19,15,0.7895,0.238577,1.0,17704.0,1.0,1.0,10.0,,,,,,,,,,
Encode-Decode_Experiment-9-1,2344622,encoding,0.375379,0.181818,0.140273,0.110676,0.898724,0.090909,0.035182,0.062007,11,2,1,False,,,,,,18,16,0.8889,0.238571,1.0,6748.0,3.0,3.0,11.0,,,,,,,,,,
Encode-Decode_Experiment-9-1,2360001,encoding,0.446756,0.214286,0.166429,0.107121,1.392058,0.142857,0.053286,0.064345,14,3,2,False,,,,,,18,17,0.9444,0.302893,1.0,7790.0,2.0,2.0,12.0,,,,,,,,,,
Encode-Decode_Experiment-9-1,2345035,encoding,0.074557,0.375,0.364563,0.139993,0.56392,0.3125,0.240313,0.12801,16,6,5,False,,,,,,21,17,0.8095,0.243134,1.0,7181.0,4.0,4.0,13.0,,,,,,,,,,
Encode-Decode_Experiment-9-1,2371471,encoding,2.366152,0.692308,0.330385,0.152958,0.378374,0.153846,0.116077,0.09982,13,9,2,False,,,,,,17,17,1.0,0.422829,1.0,7629.0,3.0,3.0,14.0,,,,,,,,,,
Encode-Decode_Experiment-9-1,2385851,encoding,-0.901047,0.0,0.071,0.078797,-0.807917,0.0,0.05525,0.068386,12,0,0,False,,,,,,16,14,0.875,0.249748,1.0,4420.0,1.0,1.0,15.0,,,,,,,,,,
Encode-Decode_Experiment-9-1,2409918,encoding,1.702521,0.7,0.4064,0.17245,1.921554,0.6,0.291,0.160807,10,7,6,False,,,,,,20,20,1.0,0.133005,1.0,6346.0,1.0,1.0,16.0,,,,,,,,,,
Encode-Decode_Experiment-9-1,2379478,encoding,2.647006,0.666667,0.284333,0.14444,1.917026,0.416667,0.180917,0.122977,12,8,5,False,,,,,,16,16,1.0,0.35044,1.0,4900.0,2.0,2.0,17.0,,,,,,,,,,
Encode-Decode_Experiment-9-1,2410309,encoding,1.341565,0.333333,0.162833,0.12709,1.392348,0.25,0.106083,0.103363,12,4,3,False,,,,,,18,18,1.0,0.276349,1.0,3623.0,2.0,2.0,18.0,,,,,,,,,,
Encode-Decode_Experiment-9-1,2370664,encoding,1.627011,0.545455,0.290364,0.156785,0.344509,0.181818,0.143909,0.110038,11,6,2,False,,,,,,19,19,1.0,0.146349,1.0,3854.0,1.0,1.0,19.0,,,,,,,,,,
Encode-Decode_Experiment-9-1,150472,encoding,0.267454,0.363636,0.321364,0.158056,0.461133,0.363636,0.290727,0.158109,11,4,4,False,,,,,,15,15,1.0,0.087503,1.0,7812.0,3.0,3.0,20.0,,,,,,,,,,
Encode-Decode_Experiment-9-1,2369373,encoding,-0.330341,0.266667,0.312467,0.138645,-0.087094,0.066667,0.073467,0.078077,15,4,1,False,,,,,,19,19,1.0,0.255517,1.0,6835.0,2.0,2.0,21.0,,,,,,,,,,
Encode-Decode_Experiment-9-1,2347400,encoding,1.373897,0.5,0.292333,0.151152,1.471526,0.5,0.2825,0.147806,12,6,6,False,,,,,,21,19,0.9048,0.187196,0.0,15825.0,3.0,4.0,22.0,,,,,,,,,,
Encode-Decode_Experiment-9-1,2383555,encoding,0.290522,0.25,0.211167,0.133667,0.249427,0.25,0.21725,0.131301,12,3,3,False,,,,,,16,13,0.8125,0.117487,1.0,6496.0,3.0,3.0,23.0,,,,,,,,,,
Encode-Decode_Experiment-9-1,2356125,encoding,0.92898,0.230769,0.135231,0.102842,-1.057261,0.0,0.089154,0.084325,13,3,0,False,,,,,,19,16,0.8421,0.202336,1.0,7555.0,3.0,3.0,24.0,,,,,,,,,,
Encode-Decode_Experiment-9-1,2387122,encoding,2.817644,0.636364,0.241364,0.140188,0.878711,0.181818,0.094364,0.099526,11,7,2,False,,,,,,15,13,0.8667,0.128814,1.0,3748.0,2.0,2.0,25.0,,,,,,,,,,
Encode-Decode_Experiment-9-1,2412687,encoding,1.497475,0.4,0.2077,0.128416,1.616396,0.2,0.0642,0.084014,10,4,2,False,,,,,,19,17,0.8947,0.178907,1.0,11798.0,3.0,3.0,26.0,,,,,,,,,,
Encode-Decode_Experiment-9-1,2385550,encoding,1.40402,0.384615,0.208154,0.125683,1.632764,0.307692,0.136308,0.104966,13,5,4,False,,,,,,18,17,0.9444,0.187254,0.0,5341.0,3.0,4.0,27.0,,,,,,,,,,
Encode-Decode_Experiment-9-1,2348899,encoding,3.556905,0.909091,0.333364,0.161862,2.842247,0.727273,0.286091,0.155223,11,10,8,False,,,,,,20,20,1.0,0.186649,1.0,6927.0,4.0,4.0,28.0,,,,,,,,,,
Encode-Decode_Experiment-9-1,2397102,encoding,0.540846,0.333333,0.244333,0.164557,0.557062,0.222222,0.145333,0.138026,9,3,2,False,,,,,,15,14,0.9333,0.105601,1.0,5449.0,3.0,3.0,29.0,,,,,,,,,,
Encode-Decode_Experiment-9-1,2350974,encoding,1.643893,0.7,0.4038,0.180182,1.740105,0.6,0.2969,0.174185,10,7,6,False,,,,,,15,15,1.0,0.319518,1.0,7005.0,4.0,4.0,30.0,,,,,,,,,,
Encode-Decode_Experiment-9-1,2360001,decoding,6.142525,0.6875,0.1345,0.090028,8.523917,0.6875,0.074,0.071974,16,11,11,False,0.5,3.0,0.0,1.0,5.0,20,20,1.0,0.152721,,,,,,1.0,2846.0,4.0,1.0,1.0,16357.0,2.0,2.0,2.0,1.0
Encode-Decode_Experiment-9-1,2348899,decoding,,1.0,1.0,0.0,,1.0,1.0,0.0,4,4,4,False,1.0,2.0,1.0,1.0,2.0,9,9,1.0,0.201179,,,,,,1.0,10180.0,4.0,2.0,1.0,3224.0,4.0,1.0,2.0,2.0
Encode-Decode_Experiment-9-1,2379478,decoding,1.105631,0.666667,0.328333,0.306009,,0.0,0.0,0.0,3,2,0,False,0.333333,1.0,,,1.0,8,5,0.625,0.297391,,,,,,1.0,3623.0,2.0,1.0,0.0,8780.0,1.0,2.0,1.0,3.0
Encode-Decode_Experiment-9-1,150472,decoding,-1.08247,0.090909,0.266455,0.162171,-0.721759,0.090909,0.194636,0.143715,11,1,1,False,0.333333,2.0,1.0,1.0,2.0,16,15,0.9375,0.151316,,,,,,1.0,9595.0,3.0,2.0,1.0,2008.0,4.0,1.0,2.0,4.0
Encode-Decode_Experiment-9-1,2386442,decoding,,0.0,0.0,0.0,,0.0,0.0,0.0,4,0,0,False,1.0,2.0,1.0,1.0,2.0,15,15,1.0,0.096814,,,,,,0.0,10452.0,1.0,2.0,1.0,3297.0,4.0,1.0,1.0,5.0
Encode-Decode_Experiment-9-1,2350974,decoding,-0.509676,0.571429,0.674429,0.202089,-0.43944,0.571429,0.657714,0.196354,7,4,4,False,0.666667,2.0,1.0,1.0,2.0,14,14,1.0,0.094919,,,,,,1.0,7250.0,2.0,2.0,1.0,2314.0,4.0,1.0,2.0,6.0
Encode-Decode_Experiment-9-1,2397102,decoding,,1.0,1.0,0.0,,0.0,0.0,0.0,2,2,0,False,0.5,1.0,,,1.0,20,20,1.0,0.075892,,,,,,0.0,6833.0,1.0,1.0,1.0,1989.0,4.0,2.0,1.0,7.0
Encode-Decode_Experiment-9-1,2349475,decoding,,0.0,0.0,0.0,,0.0,0.0,0.0,4,0,0,False,0.333333,1.0,-1.0,1.0,2.0,12,12,1.0,0.052731,,,,,,1.0,2685.0,4.0,1.0,1.0,4201.0,4.0,2.0,2.0,8.0
Encode-Decode_Experiment-9-1,2345035,decoding,0.20288,0.375,0.33575,0.193464,0.134996,0.375,0.34875,0.19445,8,3,3,False,1.0,3.0,1.0,0.333333,3.0,14,14,1.0,0.186172,,,,,,1.0,6433.0,4.0,1.0,1.0,2718.0,4.0,2.0,2.0,9.0
Encode-Decode_Experiment-9-1,2383555,decoding,0.716127,0.833333,0.6735,0.223191,-0.030582,0.333333,0.340167,0.22344,6,5,2,False,0.5,2.0,-0.333333,1.0,3.0,12,12,1.0,0.212096,,,,,,1.0,3040.0,4.0,2.0,1.0,3470.0,4.0,1.0,2.0,10.0
Encode-Decode_Experiment-9-1,2371471,decoding,,1.0,1.0,0.0,,0.0,0.0,0.0,1,1,0,True,1.0,2.0,1.0,1.0,2.0,10,10,1.0,0.126362,,,,,,1.0,4576.0,3.0,2.0,0.0,5767.0,4.0,1.0,1.0,11.0
Encode-Decode_Experiment-9-1,2410309,decoding,0.203117,0.363636,0.330545,0.162915,0.838925,0.272727,0.165818,0.127436,11,4,3,False,0.5,2.0,1.0,1.0,2.0,18,18,1.0,0.133499,,,,,,1.0,5424.0,4.0,1.0,1.0,5280.0,3.0,2.0,2.0,12.0
Encode-Decode_Experiment-9-1,2374670,decoding,,1.0,1.0,0.0,,1.0,1.0,0.0,3,3,3,False,1.0,2.0,1.0,1.0,2.0,16,16,1.0,0.249228,,,,,,1.0,6475.0,4.0,2.0,1.0,10285.0,3.0,1.0,2.0,13.0
Encode-Decode_Experiment-9-1,2369373,decoding,-0.344658,0.428571,0.496429,0.196883,,0.0,0.0,0.0,7,3,0,False,0.5,2.0,1.0,1.0,2.0,13,13,1.0,0.201701,,,,,,1.0,2705.0,4.0,2.0,1.0,3536.0,4.0,1.0,2.0,14.0
Encode-Decode_Experiment-9-1,2394020,decoding,0.907494,0.818182,0.671545,0.161584,-2.01876,0.0,0.327455,0.162206,11,9,0,False,0.666667,2.0,1.0,1.0,2.0,18,18,1.0,0.315087,,,,,,1.0,4191.0,4.0,2.0,1.0,5579.0,4.0,1.0,2.0,15.0
Encode-Decode_Experiment-9-1,2385550,decoding,-0.980305,0.142857,0.330857,0.191777,-0.940507,0.142857,0.332714,0.201867,7,1,1,False,0.333333,1.0,,,1.0,12,12,1.0,0.567382,,,,,,1.0,5727.0,4.0,2.0,1.0,2648.0,4.0,1.0,2.0,16.0
Encode-Decode_Experiment-9-1,2347025,decoding,,1.0,1.0,0.0,,0.0,0.0,0.0,2,2,0,False,1.0,2.0,1.0,1.0,2.0,12,12,1.0,0.074993,,,,,,1.0,5525.0,4.0,2.0,0.0,3720.0,4.0,1.0,1.0,17.0
Encode-Decode_Experiment-9-1,2409918,decoding,-0.021238,0.666667,0.670444,0.177877,0.015248,0.333333,0.330667,0.174887,9,6,3,False,0.333333,1.0,,,1.0,15,15,1.0,0.083155,,,,,,1.0,4032.0,4.0,1.0,0.0,10326.0,2.0,2.0,1.0,18.0
Encode-Decode_Experiment-9-1,2385851,decoding,0.53099,0.111111,0.063667,0.089351,,0.0,0.0,0.0,9,1,0,False,0.333333,2.0,1.0,1.0,2.0,17,15,0.8824,0.11911,,,,,,0.0,19901.0,2.0,1.0,1.0,16295.0,4.0,2.0,1.0,19.0
Encode-Decode_Experiment-9-1,2412687,decoding,1.195935,0.4,0.1716,0.19098,,0.0,0.0,0.0,5,2,0,False,0.5,2.0,1.0,1.0,2.0,15,15,1.0,0.022659,,,,,,1.0,5145.0,4.0,1.0,1.0,2947.0,4.0,2.0,2.0,20.0
Encode-Decode_Experiment-9-1,2411268,decoding,-1.08704,0.333333,0.656,0.296831,0.016638,0.333333,0.328333,0.300513,3,1,1,False,1.0,3.0,1.0,0.333333,3.0,10,10,1.0,0.1188,,,,,,0.0,9588.0,3.0,2.0,1.0,5401.0,4.0,1.0,1.0,21.0
Encode-Decode_Experiment-9-1,2362704,decoding,,0.0,0.0,0.0,,0.0,0.0,0.0,5,0,0,False,0.5,2.0,-0.333333,1.0,3.0,8,7,0.875,0.151829,,,,,,1.0,2717.0,4.0,1.0,1.0,1921.0,4.0,2.0,2.0,22.0
Encode-Decode_Experiment-9-1,2344622,decoding,,,,,,,,,0,0,0,True,1.0,1.0,,,1.0,9,9,1.0,0.201026,,,,,,1.0,3193.0,4.0,1.0,1.0,3403.0,4.0,2.0,2.0,23.0
Encode-Decode_Experiment-9-1,2356125,decoding,,0.0,0.0,0.0,,0.0,0.0,0.0,1,0,0,True,0.5,1.0,,,1.0,15,15,1.0,0.068007,,,,,,1.0,4572.0,4.0,2.0,1.0,3625.0,4.0,1.0,2.0,24.0
Encode-Decode_Experiment-9-1,2408717,decoding,,0.0,0.0,0.0,,0.0,0.0,0.0,5,0,0,False,0.666667,2.0,1.0,1.0,2.0,8,8,1.0,0.100927,,,,,,0.0,900.0,1.0,2.0,1.0,1771.0,4.0,1.0,1.0,25.0
Encode-Decode_Experiment-9-1,2347400,decoding,-0.942034,0.111111,0.270889,0.169609,-0.612701,0.111111,0.203333,0.150518,9,1,1,False,0.333333,2.0,0.0,1.0,4.0,12,12,1.0,0.110346,,,,,,1.0,2834.0,4.0,2.0,1.0,4207.0,4.0,1.0,2.0,26.0
Encode-Decode_Experiment-9-1,2387122,decoding,0.031662,0.666667,0.6605,0.194767,,0.0,0.0,0.0,6,4,0,False,0.5,2.0,-0.333333,1.0,3.0,16,14,0.875,0.161063,,,,,,1.0,7939.0,4.0,1.0,1.0,4119.0,4.0,2.0,2.0,27.0
Encode-Decode_Experiment-9-1,2367132,decoding,1.202613,0.555556,0.335889,0.182658,1.1704,0.333333,0.170556,0.139079,9,5,3,False,0.75,3.0,1.0,0.333333,3.0,15,15,1.0,0.114203,,,,,,1.0,5549.0,4.0,1.0,1.0,2234.0,4.0,2.0,2.0,28.0
Encode-Decode_Experiment-9-1,2370664,decoding,,,,,,,,,0,0,0,True,1.0,1.0,,,1.0,13,7,0.5385,0.154339,,,,,,1.0,2639.0,4.0,2.0,1.0,2737.0,4.0,1.0,2.0,29.0
Encode-Decode_Experiment-9-1,2356991,decoding,,0.0,0.0,0.0,,0.0,0.0,0.0,2,0,0,False,1.0,2.0,1.0,1.0,2.0,14,13,0.9286,0.035924,,,,,,1.0,8813.0,4.0,1.0,1.0,6385.0,4.0,2.0,2.0,30.0
