SubjectID,StimID,Phase,svg_z,svg_obs,svg_null_mean,svg_null_std,n_transitions,n_relational,low_n,mean_salience_relational,mean_salience_nonrelational,n_relational_fixations,n_nonrelational_fixations,n_fixations,n_aoi,aoi_prop,mean_salience,enc_q1_accuracy,enc_q1_rt_ms,enc_q1_response,enc_q1_correct_key,enc_q1_question,enc_q2_accuracy,enc_q2_rt_ms,enc_q2_response,enc_q2_correct_key,enc_q2_question,enc_trial_index,enc_total_correct,dec_free_response,dec_rt_ms,dec_trial_index,dec_cue_question
Encode-Decode_Experiment-1-1,2371471,encoding,2.189755,0.6,0.36176,0.108798,25,15,False,0.319333,0.381878,29,5,34,34,1.0,0.32853,1.0,7851.0,3.0,3.0,What is nearest to the motorcyclists?,1.0,12421.0,2.0,2.0,What stunt is one motorcyclist performing?,1.0,2.0,,,,
Encode-Decode_Experiment-1-1,2387122,encoding,-0.330065,0.347826,0.387522,0.120266,23,8,False,0.316857,0.346243,16,13,33,29,0.8788,0.308556,1.0,7463.0,1.0,1.0,What is the polar bear doing next to the enclosure edge?,1.0,5668.0,3.0,3.0,Where is the polar bear located in the scene?,2.0,2.0,,,,
Encode-Decode_Experiment-1-1,2374670,encoding,-0.476733,0.3,0.35995,0.125752,20,6,False,0.196744,0.192463,22,14,39,36,0.9231,0.212175,0.0,6044.0,4.0,1.0,What vehicle sprays water in the scene?,1.0,9310.0,3.0,3.0,Where is the man standing relative to the vehicle?,3.0,1.0,,,,
Encode-Decode_Experiment-1-1,2356991,encoding,2.017518,0.321429,0.158786,0.080615,28,9,False,0.148569,0.176891,13,20,37,33,0.8919,0.161358,1.0,10953.0,1.0,1.0,How is the player on the left (from your perspective) reaching the base?,1.0,6687.0,2.0,2.0,What is the current action of the gloved player on the base?,4.0,2.0,,,,
Encode-Decode_Experiment-1-1,2412687,encoding,2.830765,0.666667,0.3048,0.127834,15,10,False,0.144164,0.08408,17,9,29,26,0.8966,0.127853,1.0,9147.0,3.0,3.0,What is the human's body position?,1.0,5930.0,4.0,4.0,What is the dog biting onto in the scene?,5.0,2.0,,,,
Encode-Decode_Experiment-1-1,2360001,encoding,-0.770094,0.041667,0.092708,0.06628,24,1,False,0.315042,0.283575,2,35,38,37,0.9737,0.279301,1.0,11249.0,4.0,4.0,What are the workers doing to the clock?,1.0,4944.0,4.0,4.0,Where are the men standing?,6.0,2.0,,,,
Encode-Decode_Experiment-1-1,2397102,encoding,3.190341,0.571429,0.227286,0.10787,21,12,False,0.137035,0.164877,24,11,35,35,1.0,0.145785,1.0,4439.0,1.0,1.0,What are the couple doing with the cake?,1.0,4350.0,3.0,3.0,What is the man holding besides the cake knife?,7.0,2.0,,,,
Encode-Decode_Experiment-1-1,150472,encoding,1.668758,0.35,0.19075,0.09543,20,7,False,0.0896,0.086865,13,17,30,30,1.0,0.08805,1.0,3118.0,4.0,4.0,How many women are in the scene?,1.0,3643.0,2.0,2.0,Where is the pizza slice located?,8.0,2.0,,,,
Encode-Decode_Experiment-1-1,2379478,encoding,3.182431,0.866667,0.396667,0.147686,15,13,False,0.395444,,34,0,35,34,0.9714,0.406243,1.0,4689.0,4.0,4.0,What is the position of the babies?,1.0,2082.0,2.0,2.0,How many babies are visible in the scene?,9.0,2.0,,,,
Encode-Decode_Experiment-1-1,2369373,encoding,1.123483,0.6,0.46848,0.117064,25,15,False,0.238755,0.215394,30,10,40,40,1.0,0.232915,1.0,6485.0,3.0,3.0,What tool is the chef using?,1.0,4938.0,3.0,3.0,What is the appearance of the oven?,10.0,2.0,,,,
Encode-Decode_Experiment-1-1,2347025,encoding,0.098753,0.473684,0.460684,0.131642,19,9,False,0.098077,0.100803,26,11,39,37,0.9487,0.101181,1.0,4866.0,1.0,1.0,Where is the baby in relation to the mother?,1.0,5607.0,2.0,2.0,Who is holding the umbrella in the scene?,11.0,2.0,,,,
Encode-Decode_Experiment-1-1,2349475,encoding,1.168152,0.291667,0.184917,0.091384,24,7,False,0.089086,0.054041,15,21,37,36,0.973,0.070533,1.0,4998.0,3.0,3.0,Which part of the blender is the woman holding?,0.0,14841.0,2.0,1.0,What is the man doing to power the blender?,12.0,1.0,,,,
Encode-Decode_Experiment-1-1,2394020,encoding,1.776663,0.615385,0.351692,0.14842,13,8,False,0.183927,0.232903,24,3,33,27,0.8182,0.211957,1.0,11365.0,1.0,1.0,Where is the scene taking place?,1.0,3777.0,2.0,2.0,What are the riders wearing on their heads?,13.0,2.0,,,,
Encode-Decode_Experiment-1-1,2362704,encoding,-0.792589,0.045455,0.099455,0.068131,22,1,False,0.209003,0.157402,2,24,28,26,0.9286,0.175742,1.0,4644.0,4.0,4.0,What are the bears doing with the pumpkins?,1.0,3040.0,2.0,2.0,How many bears are in the scene?,16.0,2.0,,,,
Encode-Decode_Experiment-1-1,2385550,encoding,2.217431,0.391304,0.199174,0.086646,23,9,False,0.279624,0.292266,19,13,34,32,0.9412,0.305476,1.0,6081.0,3.0,3.0,Which side of the frame is the boy on? (from your perspective),1.0,4534.0,4.0,4.0,Where are the tangerines in the scene?,17.0,2.0,,,,
Encode-Decode_Experiment-1-1,2410309,encoding,2.29324,0.36,0.16272,0.086027,25,9,False,0.292115,0.298995,17,17,36,34,0.9444,0.285861,1.0,3857.0,2.0,2.0,What is the baby touching?,1.0,3350.0,4.0,4.0,How many laptops or electronic devices are visible?,20.0,2.0,,,,
Encode-Decode_Experiment-1-1,2356125,encoding,1.7459,0.32,0.18104,0.079592,25,8,False,0.342058,0.22663,18,15,34,33,0.9706,0.284523,1.0,3847.0,2.0,2.0,How many uniformed staff are moving the luggage?,1.0,5075.0,1.0,1.0,Where is the luggage being moved to?,22.0,2.0,,,,
Encode-Decode_Experiment-1-1,2348899,encoding,4.591028,0.75,0.2456,0.109866,20,15,False,0.217957,0.119061,28,4,32,32,1.0,0.205595,1.0,5228.0,4.0,4.0,What is the woman doing?,1.0,9034.0,1.0,1.0,Where is the woman located relative to the man? (from your perspective),23.0,2.0,,,,
Encode-Decode_Experiment-1-1,2350974,encoding,4.20909,0.736842,0.259579,0.113389,19,14,False,0.272914,0.241189,26,5,38,31,0.8158,0.278012,1.0,5186.0,4.0,4.0,Between which two objects is the child standing?,1.0,8762.0,1.0,1.0,What is the child up against?,24.0,2.0,,,,
Encode-Decode_Experiment-1-1,2383555,encoding,-0.030115,0.2,0.2028,0.092978,25,5,False,0.211438,0.14111,10,23,34,33,0.9706,0.165578,0.0,7759.0,3.0,2.0,Who is holding the child in the boat?,1.0,4709.0,4.0,4.0,What is the woman at the back doing in the boat?,26.0,1.0,,,,
Encode-Decode_Experiment-1-1,2409918,encoding,2.408731,0.473684,0.224211,0.103571,19,9,False,0.169894,0.098334,25,10,35,35,1.0,0.149448,1.0,9968.0,4.0,4.0,Where are the elephants in the scene?,1.0,6438.0,2.0,2.0,What is the elephant on the right (from your perspective) doing with its trunk?,27.0,2.0,,,,
Encode-Decode_Experiment-1-1,2347400,encoding,0.212464,0.222222,0.199444,0.107208,18,4,False,0.198821,0.245429,9,18,30,27,0.9,0.241136,1.0,3779.0,3.0,3.0,What are the men doing with the wine?,1.0,2865.0,1.0,1.0,What are the men sitting on in the scene?,31.0,2.0,,,,
Encode-Decode_Experiment-1-1,2408717,encoding,1.46445,0.363636,0.219955,0.098113,22,8,False,0.193703,0.220917,21,11,37,32,0.8649,0.207272,1.0,2675.0,2.0,2.0,How many surfers are in the scene?,1.0,4633.0,3.0,3.0,What are the surfers doing with the surfboards?,32.0,2.0,,,,
Encode-Decode_Experiment-1-1,2386442,encoding,2.947547,0.769231,0.331385,0.148546,13,10,False,0.136657,0.144387,33,3,37,36,0.973,0.134292,1.0,6336.0,3.0,3.0,What is the person on the right wearing?,1.0,6401.0,1.0,1.0,Who is brushing their teeth in the scene?,33.0,2.0,,,,
Encode-Decode_Experiment-1-1,2385851,encoding,0.29707,0.12,0.1012,0.063285,25,3,False,0.16401,0.12087,6,22,31,28,0.9032,0.15682,1.0,6572.0,3.0,3.0,Where are the men?,1.0,3877.0,2.0,2.0,What are the men doing with the suitcases?,35.0,2.0,,,,
Encode-Decode_Experiment-1-1,2344622,encoding,0.018231,0.333333,0.330417,0.159986,12,4,False,0.169364,0.246224,9,10,24,19,0.7917,0.254556,1.0,3713.0,4.0,4.0,What is the cat resting its head on?,1.0,8759.0,2.0,2.0,Where is the cat located?,37.0,2.0,,,,
Encode-Decode_Experiment-1-1,2411268,encoding,2.743085,0.6,0.2838,0.115272,20,12,False,0.159698,0.437671,23,8,32,31,0.9688,0.234453,0.0,9988.0,1.0,4.0,Where is the fruit branch relative to the child?,1.0,7151.0,2.0,2.0,What is the child holding while picking fruit?,38.0,1.0,,,,
Encode-Decode_Experiment-1-1,2345035,encoding,-0.53349,0.25,0.305964,0.104902,28,7,False,0.234224,0.247613,15,21,41,36,0.878,0.23046,1.0,6065.0,3.0,3.0,What are the people doing with the football?,1.0,5287.0,2.0,2.0,Who runs toward the football in the scene?,42.0,2.0,,,,
Encode-Decode_Experiment-1-1,2370664,encoding,4.605735,0.555556,0.141389,0.089924,18,10,False,0.144682,0.152652,28,12,40,40,1.0,0.147073,1.0,3329.0,1.0,1.0,Where are the people located in the scene?,1.0,3201.0,4.0,4.0,How many donuts are in the scene?,45.0,2.0,,,,
Encode-Decode_Experiment-1-1,2367132,encoding,2.469503,0.380952,0.154952,0.091516,21,8,False,0.120313,0.081787,21,15,37,36,0.973,0.103802,1.0,4443.0,4.0,4.0,In which hand(s) are the men holding the controllers?,1.0,3240.0,2.0,2.0,How many men are playing in the scene?,46.0,2.0,,,,
Encode-Decode_Experiment-1-1,2362704,decoding,,0.0,0.0,0.0,7,0,False,,0.105714,0,15,19,15,0.7895,0.088457,,,,,,,,,,,,,two bears eating a pumpkin. two black bears.half eaten pumpkin,55163.0,1.0,Which description best matches the image?
Encode-Decode_Experiment-1-1,2367132,decoding,0.318221,0.75,0.6645,0.268682,4,3,False,0.060864,,10,0,10,10,1.0,0.060864,,,,,,,,,,,,,"two men playing v'deo games, a small child sitting on a sofa in the background. two blonde men with wii controllers",63967.0,2.0,Which description best matches the image?
Encode-Decode_Experiment-1-1,2412687,decoding,,0.0,0.0,0.0,4,0,False,,0.063599,0,12,14,12,0.8571,0.065487,,,,,,,,,,,,,a man playing with a dog' the dog is trying to grab the red frisbee' at night,35594.0,3.0,Which description best matches the image?
Encode-Decode_Experiment-1-1,2371471,decoding,1.110112,0.8,0.499,0.271144,5,4,False,0.102446,,16,0,16,16,1.0,0.102446,,,,,,,,,,,,,a child rinking something in between a car and a motorcycle. the car was red amd the motorcycle was blue.,67237.0,4.0,Which description best matches the image?
Encode-Decode_Experiment-1-1,2344622,decoding,,1.0,1.0,0.0,1,1,True,0.166048,,18,0,18,18,1.0,0.166048,,,,,,,,,,,,,"a cat next to a keyboard, lounging on a blue blanket.",32372.0,5.0,Which description best matches the image?
Encode-Decode_Experiment-1-1,2408717,decoding,-0.481428,0.25,0.3385,0.183828,8,2,False,0.059474,0.047311,4,20,26,24,0.9231,0.048856,,,,,,,,,,,,,"four women on a beach with surfboards, the ones closer to the photographer had neon green surfboards",51079.0,6.0,Which description best matches the image?
Encode-Decode_Experiment-1-1,2370664,decoding,-0.541137,0.5,0.6505,0.278118,4,2,False,0.154614,0.159884,7,9,17,16,0.9412,0.159114,,,,,,,,,,,,,"two men and one woman eating donut in the street, the woman was standing in the middle of the two men, she had a red shirt on.",54622.0,7.0,Which description best matches the image?
Encode-Decode_Experiment-1-1,2356991,decoding,,0.0,0.0,0.0,6,0,False,,0.115091,0,18,20,18,0.9,0.10691,,,,,,,,,,,,,"two baseball player in the middle of a game, the player on the left is diving head first to grab the ball, the player on the right is trying to catch the ball with a focused face",79990.0,8.0,Which description best matches the image?
Encode-Decode_Experiment-1-1,2409918,decoding,-0.921624,0.181818,0.328818,0.159501,11,2,False,0.072718,0.092482,4,13,20,17,0.85,0.088457,,,,,,,,,,,,,"two men sitting on top of two elephants, the elephants are in water the elephant on the right is eating plants.",58745.0,9.0,Which description best matches the image?
Encode-Decode_Experiment-1-1,2374670,decoding,0.828019,0.5,0.336,0.198063,8,4,False,0.217528,0.201566,20,2,22,22,1.0,0.216077,,,,,,,,,,,,,"a red spray vehicle, a man on the back of a spray vehicle",38925.0,10.0,Which description best matches the image?
Encode-Decode_Experiment-1-1,2394020,decoding,1.555962,0.777778,0.499333,0.178953,9,7,False,0.316395,0.227608,21,1,23,22,0.9565,0.29959,,,,,,,,,,,,,"two men wearing cowboy hats are on horses, the horses are walking alongside a shore",37777.0,11.0,Which description best matches the image?
Encode-Decode_Experiment-1-1,2387122,decoding,0.315373,0.545455,0.494455,0.161713,11,6,False,0.160792,0.179697,14,3,20,17,0.85,0.150246,,,,,,,,,,,,,a big polar bear in a zoo enclosure pawing at the glass that is seperating the photograper from the bear.the photographer had gray hair,61612.0,12.0,Which description best matches the image?
Encode-Decode_Experiment-1-1,2369373,decoding,0.250421,0.714286,0.666,0.192818,7,5,False,0.081628,0.329965,12,1,13,13,1.0,0.100731,,,,,,,,,,,,,,47037.0,13.0,Which description best matches the image?
Encode-Decode_Experiment-1-1,2385550,decoding,1.27053,0.888889,0.669444,0.172719,9,8,False,0.236058,,18,0,18,18,1.0,0.236058,,,,,,,,,,,,,one boy and one girl is eating tangerines next to each other. the boy is on the left of the screne and the girl is on the right of the screen. both children has brown eyes,64294.0,14.0,Which description best matches the image?
Encode-Decode_Experiment-1-1,2356125,decoding,,0.0,0.0,0.0,5,0,False,,0.071504,0,18,18,18,1.0,0.071504,,,,,,,,,,,,,"four airport personnel (three woemn, one man) is standign next to a converyor belt, the two woman are putting the baggade on to converyor belt manually.",61707.0,15.0,Which description best matches the image?
Encode-Decode_Experiment-1-1,2350974,decoding,-0.436861,0.125,0.193375,0.156514,8,1,False,0.374164,0.190093,2,15,17,17,1.0,0.211749,,,,,,,,,,,,,a child in between a red and blue car drinking something.,29496.0,16.0,Which description best matches the image?
Encode-Decode_Experiment-1-1,2385851,decoding,0.106475,0.222222,0.205778,0.154444,9,2,False,0.180228,0.145542,7,8,16,15,0.9375,0.152109,,,,,,,,,,,,,"two men carrying suitcases, both suitcases are red.",31718.0,17.0,Which description best matches the image?
Encode-Decode_Experiment-1-1,2347400,decoding,-1.108892,0.0,0.204167,0.184118,6,0,False,,0.069835,0,21,21,21,1.0,0.069835,,,,,,,,,,,,,two men smelling red wine sitting on a couch. there is a pokemon ball in the background,31252.0,18.0,Which description best matches the image?
Encode-Decode_Experiment-1-1,2347025,decoding,2.153473,0.923077,0.602077,0.149062,13,12,False,0.08038,,18,0,19,18,0.9474,0.081798,,,,,,,,,,,,,one woamn and a child posing for a picture. the child is on the womans back holding a umbrella.,44220.0,19.0,Which description best matches the image?
Encode-Decode_Experiment-1-1,2410309,decoding,0.869228,0.533333,0.405733,0.146797,15,8,False,0.168944,0.189194,14,9,23,23,1.0,0.176868,,,,,,,,,,,,,a woman and a child sitting together on a couch. both of them have a laptop on their laps.,36405.0,20.0,Which description best matches the image?
Encode-Decode_Experiment-1-1,150472,decoding,0.198436,0.333333,0.298778,0.174139,9,3,False,0.169721,0.152771,6,6,12,12,1.0,0.161246,,,,,,,,,,,,,two women eating pizza from a paper plate in the middle of the street. the woman on the right wears glasses,38149.0,21.0,Which description best matches the image?
Encode-Decode_Experiment-1-1,2386442,decoding,-0.292939,0.357143,0.402286,0.154103,14,5,False,0.108614,0.095325,10,8,18,18,1.0,0.102708,,,,,,,,,,,,,a woman a child and a man are brushing their teeth. the man on the r'ght is wearing a purple shirt.,66095.0,22.0,Which description best matches the image?
Encode-Decode_Experiment-1-1,2397102,decoding,-0.70186,0.0,0.094833,0.135117,6,0,False,,0.059363,0,19,21,19,0.9048,0.054078,,,,,,,,,,,,,"one man and one woman is cutting a cake, the man on the right is holding a beer bottle in his other hand whilst cutting hte cake.",67717.0,23.0,Which description best matches the image?
Encode-Decode_Experiment-1-1,2345035,decoding,-0.963741,0.333333,0.527,0.200953,9,3,False,0.149258,0.26283,6,9,17,15,0.8824,0.196564,,,,,,,,,,,,,two girls chasing a football. one has a jersey that has the number 20 on it.,28746.0,24.0,Which description best matches the image?
Encode-Decode_Experiment-1-1,2411268,decoding,1.847853,0.785714,0.493714,0.158021,14,11,False,0.084992,0.092541,19,1,20,20,1.0,0.08537,,,,,,,,,,,,,a girl with pink boots picking apples form the tree above her head.,23197.0,25.0,Which description best matches the image?
Encode-Decode_Experiment-1-1,2348899,decoding,0.12414,0.333333,0.3075,0.208098,6,2,False,0.118477,0.128816,7,9,17,16,0.9412,0.12461,,,,,,,,,,,,,"a man at the center of the photograph, there is two toher men on the left side of the man with the pink tie. a woman is on thr roght of the man at the center. the woman is touching the pink tie on the mans neck.",71566.0,26.0,Which description best matches the image?
Encode-Decode_Experiment-1-1,2360001,decoding,1.295706,0.25,0.100875,0.115092,8,2,False,0.084079,0.11166,7,11,19,18,0.9474,0.095826,,,,,,,,,,,,,four people fixing a clock standing on a scaffold.,24145.0,27.0,Which description best matches the image?
Encode-Decode_Experiment-1-1,2349475,decoding,2.117316,0.4,0.1397,0.122939,10,4,False,0.043002,0.070038,10,9,19,19,1.0,0.055809,,,,,,,,,,,,,"there is a blender at the center of the oicture, the man on the left pf the blender is riding a bike, there is a woman on the left of the belnder holding the lid of the belnder, and there is a person in the background.",77043.0,28.0,Which description best matches the image?
Encode-Decode_Experiment-1-1,2379478,decoding,,0.0,0.0,0.0,8,0,False,,0.499424,0,22,24,22,0.9167,0.458496,,,,,,,,,,,,,two baby gitls lying in a bed drinking milk form bottles.,22883.0,29.0,Which description best matches the image?
Encode-Decode_Experiment-1-1,2383555,decoding,1.132425,0.375,0.195625,0.158399,8,3,False,0.175121,0.227028,9,7,17,16,0.9412,0.189631,,,,,,,,,,,,,two women and one child on a wooden boat. the woman at the front of the boat is holding a childe and the woman at the back of the boat is rowing the boat.,57145.0,30.0,Which description best matches the image?
Encode-Decode_Experiment-10-1,2362704,encoding,1.880256,0.333333,0.182967,0.079971,30,10,False,0.248115,0.1542,17,17,35,34,0.9714,0.199018,1.0,4528.0,4.0,4.0,What are the bears doing with the pumpkins?,1.0,2438.0,2.0,2.0,How many bears are in the scene?,1.0,2.0,,,,
Encode-Decode_Experiment-10-1,150472,encoding,-0.859561,0.15,0.24775,0.113721,20,3,False,0.087219,0.075484,5,23,31,28,0.9032,0.092926,1.0,3338.0,2.0,2.0,Where is the pizza slice located?,1.0,2893.0,4.0,4.0,How many women are in the scene?,2.0,2.0,,,,
Encode-Decode_Experiment-10-1,2370664,encoding,-0.010006,0.214286,0.2155,0.121359,14,3,False,0.069476,0.126217,6,16,26,22,0.8462,0.122232,1.0,3833.0,1.0,1.0,Where are the people located in the scene?,0.0,2566.0,3.0,4.0,How many donuts are in the scene?,4.0,1.0,,,,
Encode-Decode_Experiment-10-1,2379478,encoding,0.921081,0.35,0.2475,0.111282,20,7,False,0.319026,0.389875,18,12,31,30,0.9677,0.355879,1.0,2007.0,2.0,2.0,How many babies are visible in the scene?,1.0,5045.0,4.0,4.0,What is the position of the babies?,5.0,2.0,,,,
Encode-Decode_Experiment-10-1,2412687,encoding,0.594297,0.416667,0.326083,0.152421,12,5,False,0.123179,0.199847,12,4,28,16,0.5714,0.119551,1.0,3895.0,3.0,3.0,What is the human's body position?,1.0,3399.0,4.0,4.0,What is the dog biting onto in the scene?,6.0,2.0,,,,
Encode-Decode_Experiment-10-1,2347025,encoding,0.508345,0.52381,0.460143,0.125243,21,11,False,0.125089,0.154398,28,6,34,34,1.0,0.130261,1.0,3994.0,1.0,1.0,Where is the baby in relation to the mother?,0.0,4496.0,3.0,2.0,Who is holding the umbrella in the scene?,7.0,1.0,,,,
Encode-Decode_Experiment-10-1,2356125,encoding,2.47984,0.5,0.243727,0.103342,22,11,False,0.235264,0.258587,25,10,37,35,0.9459,0.249079,1.0,2514.0,1.0,1.0,Where is the luggage being moved to?,1.0,3297.0,2.0,2.0,How many uniformed staff are moving the luggage?,8.0,2.0,,,,
Encode-Decode_Experiment-10-1,2350974,encoding,2.945957,0.8,0.3145,0.164802,10,8,False,0.256598,,19,0,25,19,0.76,0.238674,1.0,2261.0,1.0,1.0,What is the child up against?,1.0,4270.0,4.0,4.0,Between which two objects is the child standing?,9.0,2.0,,,,
Encode-Decode_Experiment-10-1,2383555,encoding,0.816161,0.285714,0.199952,0.10508,21,6,False,0.302928,0.158923,10,16,32,26,0.8125,0.204814,1.0,3491.0,2.0,2.0,Who is holding the child in the boat?,1.0,4016.0,4.0,4.0,What is the woman at the back doing in the boat?,10.0,2.0,,,,
Encode-Decode_Experiment-10-1,2369373,encoding,2.615965,0.777778,0.427389,0.133942,18,14,False,0.261421,0.402052,24,1,26,25,0.9615,0.261874,1.0,4815.0,3.0,3.0,What is the appearance of the oven?,1.0,4239.0,3.0,3.0,What tool is the chef using?,11.0,2.0,,,,
Encode-Decode_Experiment-10-1,2385550,encoding,0.843475,0.388889,0.287722,0.11994,18,7,False,0.276524,0.262302,14,14,32,28,0.875,0.277336,1.0,4548.0,3.0,3.0,Which side of the frame is the boy on? (from your perspective),1.0,3141.0,4.0,4.0,Where are the tangerines in the scene?,13.0,2.0,,,,
Encode-Decode_Experiment-10-1,2348899,encoding,4.18893,0.608696,0.217739,0.093331,23,14,False,0.201666,0.175792,22,6,28,28,1.0,0.196122,1.0,6102.0,1.0,1.0,Where is the woman located relative to the man? (from your perspective),1.0,3203.0,4.0,4.0,What is the woman doing?,14.0,2.0,,,,
Encode-Decode_Experiment-10-1,2411268,encoding,0.473765,0.461538,0.388769,0.153598,13,6,False,0.243625,0.288897,16,9,26,25,0.9615,0.264995,1.0,6114.0,4.0,4.0,Where is the fruit branch relative to the child?,0.0,23799.0,1.0,2.0,What is the child holding while picking fruit?,15.0,1.0,,,,
Encode-Decode_Experiment-10-1,2387122,encoding,-0.136416,0.421053,0.439421,0.13465,19,8,False,0.179375,0.28172,13,11,24,24,1.0,0.226283,1.0,4071.0,3.0,3.0,Where is the polar bear located in the scene?,1.0,3613.0,1.0,1.0,What is the polar bear doing next to the enclosure edge?,17.0,2.0,,,,
Encode-Decode_Experiment-10-1,2349475,encoding,0.821209,0.153846,0.084154,0.084866,13,2,False,0.065656,0.09436,3,20,25,23,0.92,0.088054,1.0,2724.0,3.0,3.0,Which part of the blender is the woman holding?,1.0,3992.0,1.0,1.0,What is the man doing to power the blender?,18.0,2.0,,,,
Encode-Decode_Experiment-10-1,2410309,encoding,0.661148,0.263158,0.192158,0.107389,19,5,False,0.287865,0.226602,11,15,26,26,1.0,0.252521,1.0,5188.0,2.0,2.0,What is the baby touching?,1.0,3019.0,4.0,4.0,How many laptops or electronic devices are visible?,20.0,2.0,,,,
Encode-Decode_Experiment-10-1,2344622,encoding,-0.988013,0.25,0.386562,0.138219,16,4,False,0.153564,0.260008,8,17,31,25,0.8065,0.256139,1.0,3365.0,4.0,4.0,What is the cat resting its head on?,1.0,4642.0,2.0,2.0,Where is the cat located?,22.0,2.0,,,,
Encode-Decode_Experiment-10-1,2397102,encoding,1.887584,0.5,0.27925,0.116948,20,10,False,0.116305,0.084022,27,5,34,32,0.9412,0.105677,1.0,2309.0,1.0,1.0,What are the couple doing with the cake?,1.0,3756.0,3.0,3.0,What is the man holding besides the cake knife?,23.0,2.0,,,,
Encode-Decode_Experiment-10-1,2409918,encoding,-0.195526,0.352941,0.379176,0.134178,17,6,False,0.170519,0.124303,16,10,35,26,0.7429,0.131688,1.0,5345.0,4.0,4.0,Where are the elephants in the scene?,1.0,3997.0,2.0,2.0,What is the elephant on the right (from your perspective) doing with its trunk?,24.0,2.0,,,,
Encode-Decode_Experiment-10-1,2374670,encoding,0.029488,0.714286,0.709929,0.14776,14,10,False,0.17199,0.258162,17,7,28,24,0.8571,0.215653,1.0,4770.0,1.0,1.0,What vehicle sprays water in the scene?,1.0,5684.0,3.0,3.0,Where is the man standing relative to the vehicle?,25.0,2.0,,,,
Encode-Decode_Experiment-10-1,2360001,encoding,2.026076,0.285714,0.104571,0.089406,14,4,False,0.261531,0.219258,9,14,23,23,1.0,0.235799,1.0,4442.0,4.0,4.0,Where are the men standing?,1.0,3459.0,4.0,4.0,What are the workers doing to the clock?,27.0,2.0,,,,
Encode-Decode_Experiment-10-1,2347400,encoding,0.444285,0.4,0.3264,0.165659,10,4,False,0.138936,0.267598,21,11,37,32,0.8649,0.188872,1.0,2603.0,1.0,1.0,What are the men sitting on in the scene?,1.0,4788.0,3.0,3.0,What are the men doing with the wine?,29.0,2.0,,,,
Encode-Decode_Experiment-10-1,2408717,encoding,-0.059029,0.222222,0.228778,0.111057,18,4,False,0.157241,0.270898,12,12,28,24,0.8571,0.215179,1.0,3635.0,2.0,2.0,How many surfers are in the scene?,1.0,2977.0,3.0,3.0,What are the surfers doing with the surfboards?,30.0,2.0,,,,
Encode-Decode_Experiment-10-1,2394020,encoding,1.732468,0.8,0.4745,0.187882,10,8,False,0.252803,,15,0,19,15,0.7895,0.247894,1.0,3488.0,1.0,1.0,Where is the scene taking place?,1.0,3246.0,2.0,2.0,What are the riders wearing on their heads?,33.0,2.0,,,,
Encode-Decode_Experiment-10-1,2356991,encoding,2.220155,0.5,0.238,0.11801,16,8,False,0.128548,0.042288,20,10,31,30,0.9677,0.102377,1.0,5505.0,2.0,2.0,What is the current action of the gloved player on the base?,1.0,6324.0,1.0,1.0,How is the player on the left (from your perspective) reaching the base?,36.0,2.0,,,,
Encode-Decode_Experiment-10-1,2386442,encoding,-0.711952,0.545455,0.667818,0.171871,11,6,False,0.129535,0.134756,13,7,20,20,1.0,0.131362,1.0,4429.0,3.0,3.0,What is the person on the right wearing?,1.0,4695.0,1.0,1.0,Who is brushing their teeth in the scene?,37.0,2.0,,,,
Encode-Decode_Experiment-10-1,2345035,encoding,-0.090433,0.277778,0.289611,0.130852,18,5,False,0.17469,0.20841,12,14,40,26,0.65,0.167931,0.0,3175.0,2.0,3.0,What are the people doing with the football?,1.0,6623.0,2.0,2.0,Who runs toward the football in the scene?,41.0,1.0,,,,
Encode-Decode_Experiment-10-1,2371471,encoding,1.413843,0.4,0.1956,0.144571,10,4,False,0.148076,0.373248,31,14,45,45,1.0,0.218129,1.0,7062.0,2.0,2.0,What stunt is one motorcyclist performing?,1.0,4367.0,3.0,3.0,What is nearest to the motorcyclists?,42.0,2.0,,,,
Encode-Decode_Experiment-10-1,2385851,encoding,-0.674388,0.133333,0.215067,0.121196,15,2,False,0.367904,0.224178,6,13,30,19,0.6333,0.33537,1.0,5412.0,3.0,3.0,Where are the men?,1.0,2633.0,2.0,2.0,What are the men doing with the suitcases?,46.0,2.0,,,,
Encode-Decode_Experiment-10-1,2367132,encoding,2.837132,0.5,0.165167,0.118018,12,6,False,0.105676,0.034278,11,11,22,22,1.0,0.069977,1.0,2315.0,2.0,2.0,How many men are playing in the scene?,0.0,7330.0,1.0,4.0,In which hand(s) are the men holding the controllers?,55.0,1.0,,,,
Encode-Decode_Experiment-10-1,2344622,decoding,,0.0,0.0,0.0,3,0,False,,0.169863,0,11,11,11,1.0,0.169863,,,,,,,,,,,,,"cat laying on a blue blanket next to a keyboard while a hand is typing, brownish cat",25060.0,1.0,Which description best matches the image?
Encode-Decode_Experiment-10-1,2385550,decoding,-0.949832,0.0,0.166333,0.175119,6,0,False,,0.509965,0,11,12,11,0.9167,0.511118,,,,,,,,,,,,,"two children holding quaters of tangerines in their mouths while smiling boy on left, girl on right look like siblings boy blonde girl brunette with a fringe",34491.0,2.0,Which description best matches the image?
Encode-Decode_Experiment-10-1,2385851,decoding,,0.0,0.0,0.0,7,0,False,,0.143913,0,10,10,10,1.0,0.143913,,,,,,,,,,,,,two men carrying suitcases as they go through a covered walkway,22313.0,3.0,Which description best matches the image?
Encode-Decode_Experiment-10-1,2411268,decoding,,1.0,1.0,0.0,3,3,False,0.106966,,8,0,8,8,1.0,0.106966,,,,,,,,,,,,,"little girl standing under a tree picking apples, while carrying a brown basket, looks to be a large feild",24374.0,4.0,Which description best matches the image?
Encode-Decode_Experiment-10-1,2350974,decoding,,1.0,1.0,0.0,5,5,False,0.339673,,13,0,13,13,1.0,0.339673,,,,,,,,,,,,,,6456.0,5.0,Which description best matches the image?
Encode-Decode_Experiment-10-1,2408717,decoding,1.365532,1.0,0.6582,0.250305,5,5,False,0.056925,,8,0,8,8,1.0,0.056925,,,,,,,,,,,,,"4 girls carrying surfboards walking towards the ocean, 2 surfboardsa are green 2 of them are white with a slight pattern, one girl was untying her hair",37199.0,6.0,Which description best matches the image?
Encode-Decode_Experiment-10-1,2371471,decoding,0.644135,0.5,0.33425,0.257322,4,2,False,0.069844,0.543372,9,2,11,11,1.0,0.15594,,,,,,,,,,,,,"2 people doing a jump on a cycling track, onbe is doing a handstand on the bike, the other following it was a dirt track",38992.0,7.0,Which description best matches the image?
Encode-Decode_Experiment-10-1,2360001,decoding,,,,,0,0,True,,0.388833,0,10,10,10,1.0,0.388833,,,,,,,,,,,,,,4090.0,8.0,Which description best matches the image?
Encode-Decode_Experiment-10-1,2379478,decoding,0.27414,0.75,0.67625,0.269023,4,3,False,0.323656,,7,0,8,7,0.875,0.284705,,,,,,,,,,,,,,4905.0,9.0,Which description best matches the image?
Encode-Decode_Experiment-10-1,2369373,decoding,1.456946,0.833333,0.502,0.227416,6,5,False,0.349859,,10,0,10,10,1.0,0.349859,,,,,,,,,,,,,pizza chef placing a pizza into an open mouth oven that is a statue of somesort,24550.0,10.0,Which description best matches the image?
Encode-Decode_Experiment-10-1,2345035,decoding,,0.0,0.0,0.0,4,0,False,,0.459983,0,9,9,9,1.0,0.459983,,,,,,,,,,,,,2 girls chasing after a foootball one of them was wearing a white kit with the number 20,25450.0,11.0,Which description best matches the image?
Encode-Decode_Experiment-10-1,2409918,decoding,-1.936728,0.2,0.6646,0.239889,5,1,False,0.217689,0.096492,3,7,10,10,1.0,0.132851,,,,,,,,,,,,,2 elephants in a river with 2 men sat on top of them the elephant on the right was eating from a plant,21642.0,12.0,Which description best matches the image?
Encode-Decode_Experiment-10-1,2349475,decoding,,0.0,0.0,0.0,6,0,False,,0.026821,0,11,11,11,1.0,0.026821,,,,,,,,,,,,,"3 people standing around a blender, one man standing back, one lady holidng the lid and another man cycling in order for it to blend, there was some type of smoothie in the blender",37002.0,13.0,Which description best matches the image?
Encode-Decode_Experiment-10-1,2386442,decoding,,0.0,0.0,0.0,4,0,False,,0.076709,0,8,8,8,1.0,0.076709,,,,,,,,,,,,,"man, woman and child brushing their teeth",9236.0,14.0,Which description best matches the image?
Encode-Decode_Experiment-10-1,2356991,decoding,,0.0,0.0,0.0,1,0,True,,0.032156,0,11,11,11,1.0,0.032156,,,,,,,,,,,,,oen guy was sliding in to get to base before the man on base caught the ball,20700.0,15.0,Which description best matches the image?
Encode-Decode_Experiment-10-1,2348899,decoding,-1.125504,0.0,0.337,0.299421,3,0,False,,0.099821,0,11,11,11,1.0,0.099821,,,,,,,,,,,,,"4 people, 3 guys chatting and a girl touching the tie that the man is wearing it is stripey and she is to the right of the men",33675.0,16.0,Which description best matches the image?
Encode-Decode_Experiment-10-1,2383555,decoding,,0.0,0.0,0.0,3,0,False,,0.228327,0,12,12,12,1.0,0.228327,,,,,,,,,,,,,"3 people on a raft, their was a baby and then 2 women the women at the back was rowing",20114.0,17.0,Which description best matches the image?
Encode-Decode_Experiment-10-1,2356125,decoding,-0.063111,0.285714,0.298286,0.199195,7,2,False,0.261817,0.324187,7,5,16,12,0.75,0.254019,,,,,,,,,,,,,"4 workers, 2 of them security guards and 2 of them helping to put the luggage onto the conveyer belt, there were 3 bags on the conveyer",31054.0,18.0,Which description best matches the image?
Encode-Decode_Experiment-10-1,2397102,decoding,,,,,0,0,True,,0.054055,0,6,6,6,1.0,0.054055,,,,,,,,,,,,,,4525.0,19.0,Which description best matches the image?
Encode-Decode_Experiment-10-1,2374670,decoding,-0.290921,0.6,0.6696,0.23924,5,3,False,0.297333,0.334734,7,2,9,9,1.0,0.305645,,,,,,,,,,,,,"red truck spraying water, man on the back of the truck holding on",14698.0,20.0,Which description best matches the image?
Encode-Decode_Experiment-10-1,2394020,decoding,,,,,0,0,True,,0.179236,0,9,9,9,1.0,0.179236,,,,,,,,,,,,,,1792.0,21.0,Which description best matches the image?
Encode-Decode_Experiment-10-1,2387122,decoding,,1.0,1.0,0.0,2,2,False,0.079368,,7,0,7,7,1.0,0.079368,,,,,,,,,,,,,polar bear in water enclosure pressed against the glass with its paw,15265.0,22.0,Which description best matches the image?
Encode-Decode_Experiment-10-1,2362704,decoding,1.128002,0.6,0.326,0.242907,5,3,False,0.164229,0.309578,7,2,9,9,1.0,0.196529,,,,,,,,,,,,,bears eating the pumpkins,6800.0,23.0,Which description best matches the image?
Encode-Decode_Experiment-10-1,2370664,decoding,,1.0,1.0,0.0,2,2,False,0.238518,,8,0,8,8,1.0,0.238518,,,,,,,,,,,,,3 people eating donuts on a street,10185.0,24.0,Which description best matches the image?
Encode-Decode_Experiment-10-1,2367132,decoding,,0.0,0.0,0.0,3,0,False,,0.047953,0,8,9,8,0.8889,0.049295,,,,,,,,,,,,,2 men playing a vidoe game holding the remotes in both hands while girl in back watches,18748.0,25.0,Which description best matches the image?
Encode-Decode_Experiment-10-1,2347400,decoding,,0.0,0.0,0.0,5,0,False,,0.139014,0,10,10,10,1.0,0.139014,,,,,,,,,,,,,2 men sat on a sofa smelling red wine,13440.0,26.0,Which description best matches the image?
Encode-Decode_Experiment-10-1,2412687,decoding,,,,,0,0,True,,0.124559,0,12,12,12,1.0,0.124559,,,,,,,,,,,,,,6520.0,27.0,Which description best matches the image?
Encode-Decode_Experiment-10-1,2410309,decoding,,0.0,0.0,0.0,2,0,False,,0.099338,0,8,8,8,1.0,0.099338,,,,,,,,,,,,,"woman and baby sat on sofa, woman working on laptop and baby touching the keyboard there was a bottle of diet coke in the middle of them",27124.0,28.0,Which description best matches the image?
Encode-Decode_Experiment-10-1,2347025,decoding,,1.0,1.0,0.0,2,2,False,0.168791,,8,0,8,8,1.0,0.168791,,,,,,,,,,,,,baby on womans back holding a redish pinky umbrella,14169.0,29.0,Which description best matches the image?
Encode-Decode_Experiment-10-1,150472,decoding,,1.0,1.0,0.0,1,1,True,0.035393,,9,0,9,9,1.0,0.035393,,,,,,,,,,,,,2 girls holding pizza on a paper plate about to eat it girl on the right is wearing glasees,25259.0,30.0,Which description best matches the image?
Encode-Decode_Experiment-11-1,2370664,encoding,0.697606,0.153846,0.108385,0.065168,26,4,False,0.15941,0.163214,9,25,34,34,1.0,0.162207,1.0,2788.0,4.0,4.0,How many donuts are in the scene?,1.0,3789.0,1.0,1.0,Where are the people located in the scene?,1.0,2.0,,,,
Encode-Decode_Experiment-11-1,2356125,encoding,1.642844,0.4,0.24756,0.09279,25,10,False,0.290167,0.261904,18,12,37,30,0.8108,0.29884,0.0,2916.0,4.0,2.0,How many uniformed staff are moving the luggage?,1.0,3095.0,1.0,1.0,Where is the luggage being moved to?,2.0,1.0,,,,
Encode-Decode_Experiment-11-1,2344622,encoding,-0.812151,0.16,0.23684,0.094613,25,4,False,0.21429,0.20509,8,22,36,30,0.8333,0.229643,1.0,3551.0,4.0,4.0,What is the cat resting its head on?,1.0,4489.0,2.0,2.0,Where is the cat located?,3.0,2.0,,,,
Encode-Decode_Experiment-11-1,2369373,encoding,0.36254,0.407407,0.366444,0.112989,27,11,False,0.300643,0.323848,21,11,33,32,0.9697,0.302079,1.0,4641.0,3.0,3.0,What tool is the chef using?,0.0,4159.0,1.0,3.0,What is the appearance of the oven?,4.0,1.0,,,,
Encode-Decode_Experiment-11-1,2360001,encoding,1.051911,0.214286,0.137321,0.073166,28,6,False,0.150861,0.28008,13,22,35,35,1.0,0.232084,1.0,3527.0,4.0,4.0,What are the workers doing to the clock?,0.0,4447.0,2.0,4.0,Where are the men standing?,5.0,1.0,,,,
Encode-Decode_Experiment-11-1,150472,encoding,-0.525739,0.217391,0.272826,0.105442,23,5,False,0.091957,0.093667,11,16,29,27,0.931,0.10335,1.0,4609.0,2.0,2.0,Where is the pizza slice located?,1.0,2436.0,4.0,4.0,How many women are in the scene?,6.0,2.0,,,,
Encode-Decode_Experiment-11-1,2362704,encoding,0.174253,0.153846,0.141192,0.072618,26,4,False,0.206413,0.164435,7,23,30,30,1.0,0.17423,1.0,3273.0,4.0,4.0,What are the bears doing with the pumpkins?,1.0,2147.0,2.0,2.0,How many bears are in the scene?,7.0,2.0,,,,
Encode-Decode_Experiment-11-1,2367132,encoding,3.730474,0.35,0.0866,0.070608,20,7,False,0.089679,0.110717,19,14,34,33,0.9706,0.098292,1.0,5518.0,4.0,4.0,In which hand(s) are the men holding the controllers?,1.0,2338.0,2.0,2.0,How many men are playing in the scene?,8.0,2.0,,,,
Encode-Decode_Experiment-11-1,2386442,encoding,3.655787,0.703704,0.312148,0.107106,27,19,False,0.113722,0.105171,33,4,37,37,1.0,0.112798,0.0,3200.0,4.0,3.0,What is the person on the right wearing?,1.0,4148.0,1.0,1.0,Who is brushing their teeth in the scene?,9.0,1.0,,,,
Encode-Decode_Experiment-11-1,2350974,encoding,2.970947,0.52381,0.222143,0.101539,21,11,False,0.217762,0.228406,24,6,33,30,0.9091,0.214192,1.0,6384.0,4.0,4.0,Between which two objects is the child standing?,1.0,2785.0,1.0,1.0,What is the child up against?,10.0,2.0,,,,
Encode-Decode_Experiment-11-1,2347400,encoding,1.436542,0.318182,0.179818,0.096317,22,7,False,0.235781,0.188421,14,14,38,28,0.7368,0.237335,1.0,3737.0,3.0,3.0,What are the men doing with the wine?,1.0,2667.0,1.0,1.0,What are the men sitting on in the scene?,11.0,2.0,,,,
Encode-Decode_Experiment-11-1,2356991,encoding,0.951975,0.241379,0.166828,0.078313,29,7,False,0.12271,0.17492,14,20,37,34,0.9189,0.14964,1.0,6140.0,1.0,1.0,How is the player on the left (from your perspective) reaching the base?,1.0,6431.0,2.0,2.0,What is the current action of the gloved player on the base?,12.0,2.0,,,,
Encode-Decode_Experiment-11-1,2371471,encoding,1.885618,0.44,0.25408,0.098599,25,11,False,0.261174,0.606556,21,10,31,31,1.0,0.372587,0.0,4957.0,1.0,3.0,What is nearest to the motorcyclists?,1.0,6247.0,2.0,2.0,What stunt is one motorcyclist performing?,14.0,1.0,,,,
Encode-Decode_Experiment-11-1,2411268,encoding,0.740941,0.294118,0.217059,0.104001,17,5,False,0.215979,0.289461,15,12,34,27,0.7941,0.236921,1.0,3943.0,2.0,2.0,What is the child holding while picking fruit?,1.0,5672.0,4.0,4.0,Where is the fruit branch relative to the child?,15.0,2.0,,,,
Encode-Decode_Experiment-11-1,2408717,encoding,-0.470886,0.16,0.19976,0.084437,25,4,False,0.350207,0.289281,8,19,34,27,0.7941,0.298228,1.0,3767.0,3.0,3.0,What are the surfers doing with the surfboards?,1.0,2533.0,2.0,2.0,How many surfers are in the scene?,16.0,2.0,,,,
Encode-Decode_Experiment-11-1,2410309,encoding,-0.011677,0.136364,0.137364,0.085637,22,3,False,0.308537,0.292408,7,24,34,31,0.9118,0.315882,1.0,3041.0,4.0,4.0,How many laptops or electronic devices are visible?,1.0,3278.0,2.0,2.0,What is the baby touching?,17.0,2.0,,,,
Encode-Decode_Experiment-11-1,2349475,encoding,-0.11116,0.173913,0.184609,0.096219,23,4,False,0.062321,0.052886,7,20,35,27,0.7714,0.078727,1.0,4349.0,3.0,3.0,Which part of the blender is the woman holding?,1.0,3378.0,1.0,1.0,What is the man doing to power the blender?,19.0,2.0,,,,
Encode-Decode_Experiment-11-1,2385851,encoding,-1.019643,0.086957,0.172261,0.083661,23,2,False,0.158952,0.177844,5,21,32,26,0.8125,0.207879,1.0,3774.0,3.0,3.0,Where are the men?,1.0,2739.0,2.0,2.0,What are the men doing with the suitcases?,20.0,2.0,,,,
Encode-Decode_Experiment-11-1,2387122,encoding,1.141207,0.47619,0.339095,0.120132,21,10,False,0.139046,0.109506,20,5,28,25,0.8929,0.136233,1.0,5174.0,3.0,3.0,Where is the polar bear located in the scene?,1.0,4770.0,1.0,1.0,What is the polar bear doing next to the enclosure edge?,21.0,2.0,,,,
Encode-Decode_Experiment-11-1,2345035,encoding,0.405641,0.16129,0.131161,0.074275,31,5,False,0.213296,0.22694,7,27,37,34,0.9189,0.213018,1.0,3135.0,2.0,2.0,Who runs toward the football in the scene?,1.0,4557.0,3.0,3.0,What are the people doing with the football?,22.0,2.0,,,,
Encode-Decode_Experiment-11-1,2397102,encoding,0.749626,0.3,0.22015,0.10652,20,6,False,0.173613,0.169396,16,12,30,28,0.9333,0.165927,1.0,3272.0,1.0,1.0,What are the couple doing with the cake?,1.0,4218.0,3.0,3.0,What is the man holding besides the cake knife?,23.0,2.0,,,,
Encode-Decode_Experiment-11-1,2383555,encoding,0.038668,0.222222,0.218778,0.089077,27,6,False,0.214496,0.127001,13,18,34,31,0.9118,0.177751,1.0,3165.0,4.0,4.0,What is the woman at the back doing in the boat?,1.0,2862.0,2.0,2.0,Who is holding the child in the boat?,24.0,2.0,,,,
Encode-Decode_Experiment-11-1,2394020,encoding,1.411591,0.75,0.541625,0.147617,16,12,False,0.284873,,20,0,25,20,0.8,0.280133,1.0,4892.0,2.0,2.0,What are the riders wearing on their heads?,1.0,2807.0,1.0,1.0,Where is the scene taking place?,27.0,2.0,,,,
Encode-Decode_Experiment-11-1,2374670,encoding,1.722857,0.44,0.25392,0.108007,25,11,False,0.236601,0.256587,19,14,35,33,0.9429,0.242823,1.0,4330.0,1.0,1.0,What vehicle sprays water in the scene?,0.0,6666.0,4.0,3.0,Where is the man standing relative to the vehicle?,29.0,1.0,,,,
Encode-Decode_Experiment-11-1,2385550,encoding,1.638093,0.285714,0.159679,0.076941,28,8,False,0.232533,0.234815,16,16,34,32,0.9412,0.232809,1.0,3325.0,4.0,4.0,Where are the tangerines in the scene?,1.0,5641.0,3.0,3.0,Which side of the frame is the boy on? (from your perspective),30.0,2.0,,,,
Encode-Decode_Experiment-11-1,2412687,encoding,0.152419,0.357143,0.334429,0.149025,14,5,False,0.098331,0.218764,12,12,29,24,0.8276,0.141215,1.0,3151.0,4.0,4.0,What is the dog biting onto in the scene?,1.0,5574.0,3.0,3.0,What is the human's body position?,34.0,2.0,,,,
Encode-Decode_Experiment-11-1,2409918,encoding,0.354383,0.36,0.32392,0.101811,25,9,False,0.147662,0.187722,21,12,35,33,0.9429,0.172968,1.0,3977.0,4.0,4.0,Where are the elephants in the scene?,1.0,4189.0,2.0,2.0,What is the elephant on the right (from your perspective) doing with its trunk?,35.0,2.0,,,,
Encode-Decode_Experiment-11-1,2347025,encoding,0.686526,0.75,0.6718,0.113907,20,15,False,0.137319,0.055183,30,1,32,31,0.9688,0.13769,1.0,4062.0,1.0,1.0,Where is the baby in relation to the mother?,0.0,4582.0,3.0,2.0,Who is holding the umbrella in the scene?,43.0,1.0,,,,
Encode-Decode_Experiment-11-1,2348899,encoding,3.835123,0.52,0.19808,0.08394,25,13,False,0.194244,0.172049,21,11,32,32,1.0,0.186614,1.0,3377.0,4.0,4.0,What is the woman doing?,1.0,9406.0,1.0,1.0,Where is the woman located relative to the man? (from your perspective),46.0,2.0,,,,
Encode-Decode_Experiment-11-1,2379478,encoding,-0.019075,0.285714,0.288429,0.142295,14,4,False,0.4593,0.376932,10,7,18,17,0.9444,0.444714,1.0,2193.0,2.0,2.0,How many babies are visible in the scene?,1.0,5005.0,4.0,4.0,What is the position of the babies?,47.0,2.0,,,,
Encode-Decode_Experiment-11-1,2347025,decoding,,1.0,1.0,0.0,1,1,True,0.102139,,14,0,14,14,1.0,0.102139,,,,,,,,,,,,,there was an old woman with a baby on her back carrying the pink umbrella,26319.0,1.0,Which description best matches the image?
Encode-Decode_Experiment-11-1,2350974,decoding,0.908168,0.545455,0.408,0.151354,11,6,False,0.185821,0.368253,10,6,16,16,1.0,0.254233,,,,,,,,,,,,,there was a man holding a beer glass or can,34093.0,2.0,Which description best matches the image?
Encode-Decode_Experiment-11-1,2410309,decoding,0.766438,0.833333,0.666,0.218326,6,5,False,0.148439,,17,0,17,17,1.0,0.148439,,,,,,,,,,,,,a woman with a laptop and beside her a baby touching a keyboard of a laptop. some drink plastic bottle in between them,25364.0,3.0,Which description best matches the image?
Encode-Decode_Experiment-11-1,2394020,decoding,1.496087,1.0,0.672333,0.219016,6,6,False,0.180755,,10,0,13,10,0.7692,0.139833,,,,,,,,,,,,,two men riding horses on a beach wearing cowboy hats and boots,13614.0,4.0,Which description best matches the image?
Encode-Decode_Experiment-11-1,2360001,decoding,3.366478,0.444444,0.092667,0.104494,9,4,False,0.26909,0.270097,11,4,15,15,1.0,0.269358,,,,,,,,,,,,,4 men standing on something raising a big clock,23472.0,5.0,Which description best matches the image?
Encode-Decode_Experiment-11-1,150472,decoding,-0.6025,0.111111,0.205,0.155832,9,1,False,0.086486,0.120417,6,12,18,18,1.0,0.109106,,,,,,,,,,,,,two women sharing a pizza pslice on a paper plate. on of them had glasses,25174.0,6.0,Which description best matches the image?
Encode-Decode_Experiment-11-1,2356125,decoding,,0.0,0.0,0.0,4,0,False,,0.084856,0,18,18,18,1.0,0.084856,,,,,,,,,,,,,two uniformed officers keeping bags on the conveyor belt. four officers in total but only two helping with the bags,40600.0,7.0,Which description best matches the image?
Encode-Decode_Experiment-11-1,2356991,decoding,,0.0,0.0,0.0,7,0,False,,0.032614,0,16,16,16,1.0,0.032614,,,,,,,,,,,,,one boy sliding towards the base headfirst. the other boy trying to catch the ball,30802.0,8.0,Which description best matches the image?
Encode-Decode_Experiment-11-1,2385851,decoding,-0.80044,0.0,0.064833,0.080997,12,0,False,,0.254745,0,17,17,17,1.0,0.254745,,,,,,,,,,,,,two men under a covered area carrying red suitcases,18940.0,9.0,Which description best matches the image?
Encode-Decode_Experiment-11-1,2344622,decoding,,0.0,0.0,0.0,6,0,False,,0.214105,0,16,16,16,1.0,0.214105,,,,,,,,,,,,,a cat sleeping on a blue blanket next to a keyboard which has a hand on it,17160.0,10.0,Which description best matches the image?
Encode-Decode_Experiment-11-1,2374670,decoding,0.566289,0.625,0.507,0.208374,8,5,False,0.240827,0.224487,15,2,17,17,1.0,0.238904,,,,,,,,,,,,,a man standing at the back of a redd truck that is sparying water on what look slike a field,23654.0,11.0,Which description best matches the image?
Encode-Decode_Experiment-11-1,2367132,decoding,0.788538,0.833333,0.662167,0.217068,6,5,False,0.074967,0.082947,13,1,14,14,1.0,0.075537,,,,,,,,,,,,,two men playing a game with the remote controls in both their hands. a girl sitting on the couch behind them,28850.0,12.0,Which description best matches the image?
Encode-Decode_Experiment-11-1,2370664,decoding,,0.0,0.0,0.0,2,0,False,,0.153926,0,11,13,11,0.8462,0.162381,,,,,,,,,,,,,three people standing on a street eating one donut each,13105.0,13.0,Which description best matches the image?
Encode-Decode_Experiment-11-1,2386442,decoding,-0.167089,0.25,0.275417,0.152114,12,3,False,0.072454,0.073438,8,9,17,17,1.0,0.072975,,,,,,,,,,,,,"one man one woman and a child brushing their teeth. man wearing purple shirt, child wearing checked shirt and woman wearing triped shirt",31046.0,14.0,Which description best matches the image?
Encode-Decode_Experiment-11-1,2345035,decoding,-1.604968,0.0,0.327571,0.204098,7,0,False,,0.201564,0,12,14,12,0.8571,0.179982,,,,,,,,,,,,,two girls from diferent teams chasing a football during a match played on a football field,26199.0,15.0,Which description best matches the image?
Encode-Decode_Experiment-11-1,2379478,decoding,-0.196456,0.3,0.3334,0.170013,10,3,False,0.476113,0.426047,7,11,20,18,0.9,0.401658,,,,,,,,,,,,,two babies lying down on a bed drinking milk from a baby bottle,16120.0,16.0,Which description best matches the image?
Encode-Decode_Experiment-11-1,2385550,decoding,2.628302,0.75,0.340167,0.155931,12,9,False,0.217815,0.557702,13,4,17,17,1.0,0.297788,,,,,,,,,,,,,"two children, one boy and one girl with tangerines in their mouth",16245.0,17.0,Which description best matches the image?
Encode-Decode_Experiment-11-1,2412687,decoding,,0.0,0.0,0.0,3,0,False,,0.040606,0,15,16,15,0.9375,0.040792,,,,,,,,,,,,,a man holding out a red frisbee which the dog is trying to take with its mouth,18813.0,18.0,Which description best matches the image?
Encode-Decode_Experiment-11-1,2362704,decoding,-1.010002,0.0,0.133625,0.132302,8,0,False,,0.13404,0,17,17,17,1.0,0.13404,,,,,,,,,,,,,"two bears eating something which looks like a pumpkin, something orange",29454.0,19.0,Which description best matches the image?
Encode-Decode_Experiment-11-1,2408717,decoding,,0.0,0.0,0.0,2,0,False,,0.129702,0,14,15,14,0.9333,0.125304,,,,,,,,,,,,,4 women on a beach carrying one surfboard each. 2 women have white surfboards and the other two have a neon green surfbpard,32694.0,20.0,Which description best matches the image?
Encode-Decode_Experiment-11-1,2348899,decoding,1.539349,1.0,0.667167,0.216217,6,6,False,0.126331,,16,0,16,16,1.0,0.126331,,,,,,,,,,,,,a man sitting with 2 of his male friends standing next to him. a woman touching his pink and white tie,29580.0,21.0,Which description best matches the image?
Encode-Decode_Experiment-11-1,2369373,decoding,,1.0,1.0,0.0,1,1,True,0.194763,,13,0,15,13,0.8667,0.170066,,,,,,,,,,,,,dont remember,15477.0,22.0,Which description best matches the image?
Encode-Decode_Experiment-11-1,2387122,decoding,-1.520218,0.25,0.6595,0.269369,4,1,False,0.194792,0.305626,3,10,15,13,0.8667,0.243299,,,,,,,,,,,,,a polar bear in water behind a glass facade and a man looking at him with a camera around his neck,22692.0,23.0,Which description best matches the image?
Encode-Decode_Experiment-11-1,2371471,decoding,,1.0,1.0,0.0,2,2,False,0.090958,,13,0,14,13,0.9286,0.085034,,,,,,,,,,,,,"two stuntmen on bikes in the air, one of them just sitting and the other doing a handstand while in air",31523.0,24.0,Which description best matches the image?
Encode-Decode_Experiment-11-1,2397102,decoding,,0.0,0.0,0.0,4,0,False,,0.06097,0,15,16,15,0.9375,0.057202,,,,,,,,,,,,,"a couple cutting a cake, the man has a beer in his hand. a guinness",16383.0,25.0,Which description best matches the image?
Encode-Decode_Experiment-11-1,2409918,decoding,,0.0,0.0,0.0,4,0,False,,0.079768,0,16,16,16,1.0,0.079768,,,,,,,,,,,,,two elephants in water with one man on each. the elephant on the right is eating a plant,21386.0,26.0,Which description best matches the image?
Encode-Decode_Experiment-11-1,2383555,decoding,-0.22152,0.083333,0.105333,0.099314,12,1,False,0.115434,0.14075,3,14,17,17,1.0,0.136282,,,,,,,,,,,,,dont remember,12147.0,27.0,Which description best matches the image?
Encode-Decode_Experiment-11-1,2411268,decoding,-1.319625,0.166667,0.484833,0.241104,6,1,False,0.060733,0.078666,6,8,17,14,0.8235,0.075235,,,,,,,,,,,,,dont remember,17374.0,28.0,Which description best matches the image?
Encode-Decode_Experiment-11-1,2347400,decoding,0.004447,0.333333,0.332333,0.224843,6,2,False,0.08957,0.077621,5,5,10,10,1.0,0.083595,,,,,,,,,,,,,two men smelling a glass of red wine each,11968.0,29.0,Which description best matches the image?
Encode-Decode_Experiment-11-1,2349475,decoding,0.87865,0.4,0.2556,0.164343,10,4,False,0.074185,0.069463,11,5,16,16,1.0,0.07271,,,,,,,,,,,,,a man cycling to power a blender. a woman holding the top lid of the blender and someone standing in the background,23780.0,30.0,Which description best matches the image?
Encode-Decode_Experiment-12-1,2348899,encoding,1.566717,0.75,0.496167,0.162016,12,9,False,0.211917,,26,0,26,26,1.0,0.211917,1.0,4705.0,4.0,4.0,What is the woman doing?,1.0,6461.0,1.0,1.0,Where is the woman located relative to the man? (from your perspective),1.0,2.0,,,,
Encode-Decode_Experiment-12-1,2350974,encoding,1.903296,0.631579,0.401789,0.120732,19,12,False,0.342232,0.175951,22,5,30,27,0.9,0.297481,1.0,6260.0,4.0,4.0,Between which two objects is the child standing?,1.0,4350.0,1.0,1.0,What is the child up against?,2.0,2.0,,,,
Encode-Decode_Experiment-12-1,2362704,encoding,0.488559,0.166667,0.130375,0.074283,24,4,False,0.241483,0.322712,9,20,30,29,0.9667,0.298547,1.0,4769.0,4.0,4.0,What are the bears doing with the pumpkins?,1.0,1435.0,2.0,2.0,How many bears are in the scene?,3.0,2.0,,,,
Encode-Decode_Experiment-12-1,2412687,encoding,1.598289,0.6,0.370667,0.143487,15,9,False,0.115768,0.140906,17,7,31,24,0.7742,0.118383,1.0,4546.0,4.0,4.0,What is the dog biting onto in the scene?,1.0,3800.0,3.0,3.0,What is the human's body position?,4.0,2.0,,,,
Encode-Decode_Experiment-12-1,2379478,encoding,2.782982,0.722222,0.341778,0.136704,18,13,False,0.388866,0.249042,29,4,33,33,1.0,0.371917,1.0,2555.0,2.0,2.0,How many babies are visible in the scene?,1.0,4318.0,4.0,4.0,What is the position of the babies?,5.0,2.0,,,,
Encode-Decode_Experiment-12-1,2374670,encoding,0.249412,0.318182,0.289955,0.113175,22,7,False,0.15559,0.127896,18,14,33,32,0.9697,0.139603,0.0,5477.0,4.0,1.0,What vehicle sprays water in the scene?,1.0,3700.0,3.0,3.0,Where is the man standing relative to the vehicle?,6.0,1.0,,,,
Encode-Decode_Experiment-12-1,2347400,encoding,1.382448,0.263158,0.141895,0.087716,19,5,False,0.173668,0.287058,14,13,30,27,0.9,0.223652,1.0,7922.0,3.0,3.0,What are the men doing with the wine?,1.0,2618.0,1.0,1.0,What are the men sitting on in the scene?,7.0,2.0,,,,
Encode-Decode_Experiment-12-1,2408717,encoding,0.357366,0.217391,0.185,0.090639,23,5,False,0.307717,0.204369,11,19,32,30,0.9375,0.248498,1.0,5172.0,2.0,2.0,How many surfers are in the scene?,1.0,4703.0,3.0,3.0,What are the surfers doing with the surfboards?,8.0,2.0,,,,
Encode-Decode_Experiment-12-1,2386442,encoding,3.152635,0.777778,0.356444,0.133645,18,14,False,0.132073,0.059577,33,2,35,35,1.0,0.127931,1.0,3588.0,1.0,1.0,Who is brushing their teeth in the scene?,1.0,3734.0,3.0,3.0,What is the person on the right wearing?,9.0,2.0,,,,
Encode-Decode_Experiment-12-1,2410309,encoding,0.27344,0.3,0.26725,0.11977,20,6,False,0.422645,0.22628,14,14,29,28,0.9655,0.320055,1.0,3377.0,4.0,4.0,How many laptops or electronic devices are visible?,1.0,4521.0,2.0,2.0,What is the baby touching?,12.0,2.0,,,,
Encode-Decode_Experiment-12-1,2371471,encoding,3.127066,0.64,0.30496,0.107142,25,16,False,0.410398,0.467525,25,6,31,31,1.0,0.421455,1.0,14130.0,2.0,2.0,What stunt is one motorcyclist performing?,0.0,7842.0,1.0,3.0,What is nearest to the motorcyclists?,13.0,1.0,,,,
Encode-Decode_Experiment-12-1,2356991,encoding,-0.476864,0.166667,0.2155,0.102405,24,4,False,0.14828,0.172787,7,23,30,30,1.0,0.167069,1.0,6140.0,1.0,1.0,How is the player on the left (from your perspective) reaching the base?,0.0,10852.0,1.0,2.0,What is the current action of the gloved player on the base?,14.0,1.0,,,,
Encode-Decode_Experiment-12-1,2349475,encoding,0.903512,0.285714,0.19619,0.099084,21,6,False,0.06314,0.06219,12,15,30,27,0.9,0.073385,1.0,4695.0,1.0,1.0,What is the man doing to power the blender?,1.0,4553.0,3.0,3.0,Which part of the blender is the woman holding?,15.0,2.0,,,,
Encode-Decode_Experiment-12-1,2370664,encoding,1.792974,0.36,0.20424,0.086872,25,9,False,0.158935,0.098141,17,15,32,32,1.0,0.130438,1.0,3163.0,1.0,1.0,Where are the people located in the scene?,1.0,2855.0,4.0,4.0,How many donuts are in the scene?,16.0,2.0,,,,
Encode-Decode_Experiment-12-1,2394020,encoding,3.928929,0.782609,0.335478,0.113805,23,18,False,0.297217,0.201905,26,2,31,28,0.9032,0.305749,1.0,2564.0,2.0,2.0,What are the riders wearing on their heads?,1.0,6988.0,1.0,1.0,Where is the scene taking place?,17.0,2.0,,,,
Encode-Decode_Experiment-12-1,2345035,encoding,-0.513364,0.315789,0.383895,0.132665,19,6,False,0.180412,0.292083,14,13,34,27,0.7941,0.226322,1.0,3588.0,2.0,2.0,Who runs toward the football in the scene?,0.0,8018.0,2.0,3.0,What are the people doing with the football?,18.0,1.0,,,,
Encode-Decode_Experiment-12-1,2369373,encoding,2.49022,0.647059,0.327706,0.128243,17,11,False,0.229375,0.075314,21,2,24,23,0.9583,0.21144,1.0,2801.0,3.0,3.0,What tool is the chef using?,1.0,4471.0,3.0,3.0,What is the appearance of the oven?,20.0,2.0,,,,
Encode-Decode_Experiment-12-1,2360001,encoding,1.04886,0.333333,0.215133,0.112694,15,5,False,0.338907,0.117954,9,14,23,23,1.0,0.204414,1.0,4385.0,4.0,4.0,What are the workers doing to the clock?,1.0,5966.0,4.0,4.0,Where are the men standing?,21.0,2.0,,,,
Encode-Decode_Experiment-12-1,2344622,encoding,1.079607,0.277778,0.175444,0.094788,18,5,False,0.195878,0.182635,17,15,32,32,1.0,0.18967,1.0,3553.0,4.0,4.0,What is the cat resting its head on?,1.0,2338.0,2.0,2.0,Where is the cat located?,22.0,2.0,,,,
Encode-Decode_Experiment-12-1,2385550,encoding,0.806193,0.230769,0.163308,0.083679,26,6,False,0.187256,0.225803,11,21,32,32,1.0,0.212552,1.0,4594.0,3.0,3.0,Which side of the frame is the boy on? (from your perspective),1.0,2877.0,4.0,4.0,Where are the tangerines in the scene?,23.0,2.0,,,,
Encode-Decode_Experiment-12-1,2409918,encoding,2.437274,0.8125,0.475812,0.138141,16,13,False,0.105191,,29,0,31,29,0.9355,0.116702,0.0,7279.0,3.0,2.0,What is the elephant on the right (from your perspective) doing with its trunk?,1.0,3754.0,4.0,4.0,Where are the elephants in the scene?,25.0,1.0,,,,
Encode-Decode_Experiment-12-1,2347025,encoding,0.835642,0.722222,0.614611,0.128777,18,13,False,0.083014,0.033475,26,1,28,27,0.9643,0.080254,1.0,3188.0,1.0,1.0,Where is the baby in relation to the mother?,1.0,4422.0,2.0,2.0,Who is holding the umbrella in the scene?,26.0,2.0,,,,
Encode-Decode_Experiment-12-1,2383555,encoding,0.882377,0.375,0.277958,0.109978,24,9,False,0.206303,0.170577,16,15,32,31,0.9688,0.185409,0.0,2500.0,3.0,2.0,Who is holding the child in the boat?,1.0,5224.0,4.0,4.0,What is the woman at the back doing in the boat?,27.0,1.0,,,,
Encode-Decode_Experiment-12-1,2356125,encoding,0.858316,0.277778,0.192889,0.098902,18,5,False,0.270544,0.210304,12,18,33,30,0.9091,0.236254,1.0,3678.0,2.0,2.0,How many uniformed staff are moving the luggage?,1.0,2689.0,1.0,1.0,Where is the luggage being moved to?,31.0,2.0,,,,
Encode-Decode_Experiment-12-1,2387122,encoding,0.35523,0.470588,0.420118,0.142078,17,8,False,0.131836,0.071836,19,6,26,25,0.9615,0.122484,1.0,3195.0,3.0,3.0,Where is the polar bear located in the scene?,1.0,6460.0,1.0,1.0,What is the polar bear doing next to the enclosure edge?,32.0,2.0,,,,
Encode-Decode_Experiment-12-1,2411268,encoding,3.118175,0.777778,0.384611,0.126089,18,14,False,0.151452,0.139584,24,2,28,26,0.9286,0.14773,1.0,7147.0,2.0,2.0,What is the child holding while picking fruit?,1.0,5309.0,4.0,4.0,Where is the fruit branch relative to the child?,35.0,2.0,,,,
Encode-Decode_Experiment-12-1,2367132,encoding,3.556522,0.545455,0.178591,0.103152,22,12,False,0.088573,0.076846,26,7,34,33,0.9706,0.085984,1.0,4645.0,4.0,4.0,In which hand(s) are the men holding the controllers?,1.0,1938.0,2.0,2.0,How many men are playing in the scene?,42.0,2.0,,,,
Encode-Decode_Experiment-12-1,2397102,encoding,1.238677,0.428571,0.28519,0.115753,21,9,False,0.085259,0.18614,19,10,31,29,0.9355,0.118279,1.0,2848.0,3.0,3.0,What is the man holding besides the cake knife?,1.0,2213.0,1.0,1.0,What are the couple doing with the cake?,46.0,2.0,,,,
Encode-Decode_Experiment-12-1,2385851,encoding,-1.348958,0.0,0.113294,0.083986,17,0,False,,0.143996,0,21,22,21,0.9545,0.147182,1.0,2616.0,2.0,2.0,What are the men doing with the suitcases?,0.0,5927.0,4.0,3.0,Where are the men?,48.0,1.0,,,,
Encode-Decode_Experiment-12-1,150472,encoding,0.958904,0.458333,0.354917,0.107849,24,11,False,0.09993,0.108113,18,9,29,27,0.931,0.11259,1.0,1991.0,4.0,4.0,How many women are in the scene?,1.0,4824.0,2.0,2.0,Where is the pizza slice located?,49.0,2.0,,,,
Encode-Decode_Experiment-12-1,2387122,decoding,,,,,0,0,True,,0.169491,0,5,7,5,0.7143,0.176278,,,,,,,,,,,,,bear in pool paw showing person with camera looking at it,27112.0,1.0,Which description best matches the image?
Encode-Decode_Experiment-12-1,2374670,decoding,-1.168423,0.428571,0.671286,0.207728,7,3,False,0.345222,0.337372,11,5,16,16,1.0,0.342769,,,,,,,,,,,,,big red truck with water spraying out the back with man standing on the back,27918.0,2.0,Which description best matches the image?
Encode-Decode_Experiment-12-1,2394020,decoding,,1.0,1.0,0.0,2,2,False,0.236678,,12,0,12,12,1.0,0.236678,,,,,,,,,,,,,two men wearing cowboy hats riding horses beside water,14163.0,3.0,Which description best matches the image?
Encode-Decode_Experiment-12-1,2360001,decoding,-0.032259,0.166667,0.172333,0.175661,6,1,False,0.23879,0.142498,2,9,11,11,1.0,0.160005,,,,,,,,,,,,,a few men on scaffolding putting up a big old clock,20654.0,4.0,Which description best matches the image?
Encode-Decode_Experiment-12-1,2385851,decoding,0.153319,0.428571,0.399429,0.19008,7,3,False,0.189914,0.142564,5,6,11,11,1.0,0.164087,,,,,,,,,,,,,"two people carrying a suitcase each one with a bigger suitcase and one with a red one, walking up a path back facing me",46788.0,5.0,Which description best matches the image?
Encode-Decode_Experiment-12-1,2383555,decoding,0.818435,0.5,0.329333,0.208528,6,3,False,0.178771,0.196567,6,5,11,11,1.0,0.18686,,,,,,,,,,,,,3 asian people on a raft one rowing and one holding a child,18198.0,6.0,Which description best matches the image?
Encode-Decode_Experiment-12-1,2371471,decoding,,1.0,1.0,0.0,4,4,False,0.108898,,16,0,16,16,1.0,0.108898,,,,,,,,,,,,,"two men on bikes up in the air, one is doing a handstand on the bike, a ramp is beneath them",23999.0,7.0,Which description best matches the image?
Encode-Decode_Experiment-12-1,2385550,decoding,,0.0,0.0,0.0,1,0,True,,0.451643,0,7,7,7,1.0,0.451643,,,,,,,,,,,,,"two children, a girl and a boy with tangerines in their mouths pretending to smile",23429.0,8.0,Which description best matches the image?
Encode-Decode_Experiment-12-1,2410309,decoding,0.306833,0.75,0.669,0.263987,4,3,False,0.160341,0.108841,8,3,11,11,1.0,0.146295,,,,,,,,,,,,,"a woman and baby on a sofa both looking at laptops, woman is typing",19762.0,9.0,Which description best matches the image?
Encode-Decode_Experiment-12-1,2386442,decoding,,1.0,1.0,0.0,1,1,True,0.118355,,6,0,6,6,1.0,0.118355,,,,,,,,,,,,,two children with tangerines in mouth,22748.0,10.0,Which description best matches the image?
Encode-Decode_Experiment-12-1,2356125,decoding,,1.0,1.0,0.0,2,2,False,0.06753,,9,0,9,9,1.0,0.06753,,,,,,,,,,,,,two men with suitcases in an airport,26601.0,11.0,Which description best matches the image?
Encode-Decode_Experiment-12-1,2411268,decoding,-0.625771,0.5,0.66675,0.266471,4,2,False,0.087568,0.149781,4,2,6,6,1.0,0.108306,,,,,,,,,,,,,a little girl in pink wellies picking green apples with a red bag,17571.0,12.0,Which description best matches the image?
Encode-Decode_Experiment-12-1,150472,decoding,-1.064549,0.111111,0.296333,0.173991,9,1,False,0.15629,0.183518,3,10,13,13,1.0,0.177234,,,,,,,,,,,,,two women in dim lighting opening their mouths to a slice of pizza on a paper plate,20333.0,13.0,Which description best matches the image?
Encode-Decode_Experiment-12-1,2347400,decoding,,0.0,0.0,0.0,4,0,False,,0.058298,0,6,6,6,1.0,0.058298,,,,,,,,,,,,,two men sitting on a sofa smelling their glasses of red wine,14081.0,14.0,Which description best matches the image?
Encode-Decode_Experiment-12-1,2367132,decoding,0.567518,0.5,0.34475,0.27356,4,2,False,0.122756,0.138862,4,2,6,6,1.0,0.128125,,,,,,,,,,,,,cat sat bside computer,12864.0,15.0,Which description best matches the image?
Encode-Decode_Experiment-12-1,2379478,decoding,-0.033703,0.333333,0.343667,0.306601,3,1,False,0.421982,0.381393,2,7,9,9,1.0,0.390413,,,,,,,,,,,,,two babies lying down with bottles of milk in their mouths,18880.0,16.0,Which description best matches the image?
Encode-Decode_Experiment-12-1,2362704,decoding,,0.0,0.0,0.0,1,0,True,,0.186274,0,6,6,6,1.0,0.186274,,,,,,,,,,,,,"two black bears eating pumpkins, one is looking away",15821.0,17.0,Which description best matches the image?
Encode-Decode_Experiment-12-1,2412687,decoding,,0.0,0.0,0.0,1,0,True,,0.041332,0,8,8,8,1.0,0.041332,,,,,,,,,,,,,cute dog,14046.0,18.0,Which description best matches the image?
Encode-Decode_Experiment-12-1,2397102,decoding,,0.0,0.0,0.0,2,0,False,,0.05533,0,10,10,10,1.0,0.05533,,,,,,,,,,,,,"a man and a woman cutting into a cake, the man is holding a beer",14541.0,19.0,Which description best matches the image?
Encode-Decode_Experiment-12-1,2344622,decoding,,0.0,0.0,0.0,1,0,True,,0.205483,0,11,11,11,1.0,0.205483,,,,,,,,,,,,,cat lying down bside keyboard on a blue blanket,16850.0,20.0,Which description best matches the image?
Encode-Decode_Experiment-12-1,2409918,decoding,-1.126515,0.333333,0.666667,0.295898,3,1,False,0.056238,0.081457,5,4,9,9,1.0,0.067446,,,,,,,,,,,,,"two elephants in water with two men on them, one elephant is eating a plant",20376.0,21.0,Which description best matches the image?
Encode-Decode_Experiment-12-1,2349475,decoding,0.345877,0.25,0.176,0.213949,4,1,False,0.039053,0.060433,3,4,7,7,1.0,0.05127,,,,,,,,,,,,,"a blender full of mixture, one man is pedal powering the blender and one woman is holdingthe lid",30298.0,22.0,Which description best matches the image?
Encode-Decode_Experiment-12-1,2369373,decoding,,0.0,0.0,0.0,1,0,True,,0.106772,0,9,9,9,1.0,0.106772,,,,,,,,,,,,,chef putting a pizza into a oven in the shape of a stone mouth,16952.0,23.0,Which description best matches the image?
Encode-Decode_Experiment-12-1,2348899,decoding,,,,,0,0,True,,0.205586,0,3,3,3,1.0,0.205586,,,,,,,,,,,,,man with pink and white tie and woman touching it,17955.0,24.0,Which description best matches the image?
Encode-Decode_Experiment-12-1,2370664,decoding,,,,,0,0,True,,0.153357,0,8,8,8,1.0,0.153357,,,,,,,,,,,,,three people in caravan park eating donuts looking at the camera,22688.0,25.0,Which description best matches the image?
Encode-Decode_Experiment-12-1,2408717,decoding,,0.0,0.0,0.0,2,0,False,,0.061316,0,5,5,5,1.0,0.061316,,,,,,,,,,,,,4 surfers walking to the water holding their surfboards,14438.0,26.0,Which description best matches the image?
Encode-Decode_Experiment-12-1,2347025,decoding,,1.0,1.0,0.0,2,2,False,0.135576,,6,0,6,6,1.0,0.135576,,,,,,,,,,,,,"a granny with a baby on her back, baby is holding an umbrella",14750.0,27.0,Which description best matches the image?
Encode-Decode_Experiment-12-1,2345035,decoding,,0.0,0.0,0.0,1,0,True,,0.208416,0,6,6,6,1.0,0.208416,,,,,,,,,,,,,"two girls chasing a football, one in blue and one in white",16417.0,28.0,Which description best matches the image?
Encode-Decode_Experiment-12-1,2356991,decoding,,0.0,0.0,0.0,1,0,True,,0.037235,0,8,10,8,0.8,0.034479,,,,,,,,,,,,,a man lying on ground hands out and another man catching a ball,22282.0,29.0,Which description best matches the image?
Encode-Decode_Experiment-12-1,2350974,decoding,-1.250874,0.0,0.3315,0.265015,4,0,False,,0.0875,0,12,12,12,1.0,0.0875,,,,,,,,,,,,,man drinking,11225.0,30.0,Which description best matches the image?
Encode-Decode_Experiment-13-1,2383555,encoding,-0.941434,0.043478,0.111478,0.07223,23,1,False,0.250284,0.2218,2,24,33,26,0.7879,0.198782,0.0,6222.0,3.0,2.0,Who is holding the child in the boat?,1.0,3642.0,4.0,4.0,What is the woman at the back doing in the boat?,1.0,1.0,,,,
Encode-Decode_Experiment-13-1,2362704,encoding,-0.569881,0.074074,0.113481,0.06915,27,2,False,0.357824,0.25117,3,30,33,33,1.0,0.260866,1.0,4661.0,4.0,4.0,What are the bears doing with the pumpkins?,1.0,1935.0,2.0,2.0,How many bears are in the scene?,2.0,2.0,,,,
Encode-Decode_Experiment-13-1,2408717,encoding,0.977161,0.291667,0.207042,0.086603,24,7,False,0.27242,0.165683,15,13,38,28,0.7368,0.225013,1.0,5354.0,3.0,3.0,What are the surfers doing with the surfboards?,1.0,3379.0,2.0,2.0,How many surfers are in the scene?,3.0,2.0,,,,
Encode-Decode_Experiment-13-1,2356991,encoding,1.402613,0.307692,0.182385,0.089339,26,8,False,0.119732,0.180797,14,16,33,30,0.9091,0.156088,1.0,11044.0,2.0,2.0,What is the current action of the gloved player on the base?,1.0,8942.0,1.0,1.0,How is the player on the left (from your perspective) reaching the base?,4.0,2.0,,,,
Encode-Decode_Experiment-13-1,2349475,encoding,1.996356,0.458333,0.248625,0.105046,24,11,False,0.100344,0.047474,20,8,35,28,0.8,0.095884,1.0,7850.0,3.0,3.0,Which part of the blender is the woman holding?,1.0,3279.0,1.0,1.0,What is the man doing to power the blender?,5.0,2.0,,,,
Encode-Decode_Experiment-13-1,2412687,encoding,1.426439,0.684211,0.489789,0.136298,19,13,False,0.102174,0.108124,17,7,30,24,0.8,0.108729,0.0,5320.0,2.0,3.0,What is the human's body position?,1.0,5698.0,4.0,4.0,What is the dog biting onto in the scene?,6.0,1.0,,,,
Encode-Decode_Experiment-13-1,2385851,encoding,-0.567677,0.090909,0.136545,0.080391,22,2,False,0.103798,0.287702,5,23,30,28,0.9333,0.256344,1.0,4739.0,2.0,2.0,What are the men doing with the suitcases?,0.0,5823.0,4.0,3.0,Where are the men?,7.0,1.0,,,,
Encode-Decode_Experiment-13-1,2345035,encoding,0.447078,0.428571,0.371048,0.128666,21,9,False,0.15256,0.144497,16,10,35,26,0.7429,0.163761,0.0,6182.0,2.0,3.0,What are the people doing with the football?,1.0,5894.0,2.0,2.0,Who runs toward the football in the scene?,8.0,1.0,,,,
Encode-Decode_Experiment-13-1,2347025,encoding,0.571459,0.727273,0.664545,0.109767,22,16,False,0.091097,0.035702,26,4,30,30,1.0,0.083711,1.0,3674.0,1.0,1.0,Where is the baby in relation to the mother?,1.0,3658.0,2.0,2.0,Who is holding the umbrella in the scene?,11.0,2.0,,,,
Encode-Decode_Experiment-13-1,2410309,encoding,0.80925,0.15,0.0894,0.074884,20,3,False,0.2882,0.303889,6,17,23,23,1.0,0.299796,1.0,4719.0,2.0,2.0,What is the baby touching?,1.0,3730.0,4.0,4.0,How many laptops or electronic devices are visible?,12.0,2.0,,,,
Encode-Decode_Experiment-13-1,2347400,encoding,-0.285091,0.25,0.2829,0.115402,20,5,False,0.19563,0.194686,11,18,33,29,0.8788,0.201439,1.0,4850.0,3.0,3.0,What are the men doing with the wine?,1.0,2984.0,1.0,1.0,What are the men sitting on in the scene?,13.0,2.0,,,,
Encode-Decode_Experiment-13-1,2367132,encoding,3.972417,0.461538,0.134923,0.082221,26,12,False,0.095807,0.137473,26,8,36,34,0.9444,0.10363,1.0,3504.0,2.0,2.0,How many men are playing in the scene?,0.0,15044.0,2.0,4.0,In which hand(s) are the men holding the controllers?,15.0,1.0,,,,
Encode-Decode_Experiment-13-1,2397102,encoding,2.18961,0.32,0.14304,0.080818,25,8,False,0.086902,0.131221,15,15,33,30,0.9091,0.109785,1.0,3084.0,1.0,1.0,What are the couple doing with the cake?,1.0,5802.0,3.0,3.0,What is the man holding besides the cake knife?,16.0,2.0,,,,
Encode-Decode_Experiment-13-1,2379478,encoding,3.470931,0.5,0.214687,0.082201,32,16,False,0.359212,0.372775,23,12,35,35,1.0,0.363862,0.0,3873.0,3.0,4.0,What is the position of the babies?,1.0,3325.0,2.0,2.0,How many babies are visible in the scene?,17.0,1.0,,,,
Encode-Decode_Experiment-13-1,2394020,encoding,2.328615,0.764706,0.460882,0.130474,17,13,False,0.215258,0.250507,25,1,31,26,0.8387,0.216909,0.0,5040.0,1.0,2.0,What are the riders wearing on their heads?,0.0,10517.0,4.0,1.0,Where is the scene taking place?,19.0,0.0,,,,
Encode-Decode_Experiment-13-1,150472,encoding,-0.511376,0.2,0.25465,0.106869,20,4,False,0.068257,0.077041,10,20,31,30,0.9677,0.077114,1.0,3206.0,2.0,2.0,Where is the pizza slice located?,1.0,3176.0,4.0,4.0,How many women are in the scene?,22.0,2.0,,,,
Encode-Decode_Experiment-13-1,2356125,encoding,2.12238,0.454545,0.247909,0.097361,22,10,False,0.293852,0.291583,19,8,33,27,0.8182,0.293749,1.0,6255.0,1.0,1.0,Where is the luggage being moved to?,1.0,5479.0,2.0,2.0,How many uniformed staff are moving the luggage?,24.0,2.0,,,,
Encode-Decode_Experiment-13-1,2360001,encoding,0.852272,0.178571,0.120893,0.067676,28,5,False,0.281527,0.329262,12,22,34,34,1.0,0.312414,0.0,6756.0,2.0,4.0,Where are the men standing?,1.0,4500.0,4.0,4.0,What are the workers doing to the clock?,25.0,1.0,,,,
Encode-Decode_Experiment-13-1,2371471,encoding,2.665161,0.521739,0.247565,0.102873,23,12,False,0.265591,0.546979,24,8,32,32,1.0,0.335938,0.0,7127.0,1.0,3.0,What is nearest to the motorcyclists?,1.0,6087.0,2.0,2.0,What stunt is one motorcyclist performing?,26.0,1.0,,,,
Encode-Decode_Experiment-13-1,2348899,encoding,2.057856,0.47619,0.250286,0.109777,21,10,False,0.15063,0.129168,22,8,30,30,1.0,0.144907,1.0,6089.0,4.0,4.0,What is the woman doing?,1.0,6644.0,1.0,1.0,Where is the woman located relative to the man? (from your perspective),27.0,2.0,,,,
Encode-Decode_Experiment-13-1,2369373,encoding,0.563401,0.444444,0.366222,0.138839,18,8,False,0.227792,0.204199,19,7,28,26,0.9286,0.213981,1.0,4028.0,3.0,3.0,What tool is the chef using?,1.0,4322.0,3.0,3.0,What is the appearance of the oven?,28.0,2.0,,,,
Encode-Decode_Experiment-13-1,2386442,encoding,2.44309,0.695652,0.395913,0.122689,23,16,False,0.127344,0.099366,32,3,35,35,1.0,0.124946,1.0,6171.0,1.0,1.0,Who is brushing their teeth in the scene?,1.0,7296.0,3.0,3.0,What is the person on the right wearing?,29.0,2.0,,,,
Encode-Decode_Experiment-13-1,2387122,encoding,0.600094,0.461538,0.360231,0.16882,13,6,False,0.156238,0.374332,9,7,19,16,0.8421,0.261716,1.0,7180.0,1.0,1.0,What is the polar bear doing next to the enclosure edge?,1.0,5457.0,3.0,3.0,Where is the polar bear located in the scene?,30.0,2.0,,,,
Encode-Decode_Experiment-13-1,2370664,encoding,-1.017978,0.058824,0.166882,0.106151,17,1,False,0.104568,0.133365,2,24,26,26,1.0,0.13115,1.0,5084.0,4.0,4.0,How many donuts are in the scene?,1.0,3212.0,1.0,1.0,Where are the people located in the scene?,31.0,2.0,,,,
Encode-Decode_Experiment-13-1,2350974,encoding,4.241275,0.652174,0.237739,0.097715,23,15,False,0.22714,0.145314,23,4,31,27,0.871,0.217249,1.0,5577.0,4.0,4.0,Between which two objects is the child standing?,1.0,5629.0,1.0,1.0,What is the child up against?,32.0,2.0,,,,
Encode-Decode_Experiment-13-1,2409918,encoding,-1.778182,0.142857,0.505714,0.204061,7,1,False,0.100713,0.241141,2,7,10,9,0.9,0.217613,1.0,5887.0,4.0,4.0,Where are the elephants in the scene?,0.0,6895.0,4.0,2.0,What is the elephant on the right (from your perspective) doing with its trunk?,36.0,1.0,,,,
Encode-Decode_Experiment-13-1,2385550,encoding,3.342677,0.464286,0.199464,0.079224,28,13,False,0.283041,0.31204,23,11,34,34,1.0,0.292423,1.0,4891.0,3.0,3.0,Which side of the frame is the boy on? (from your perspective),1.0,3565.0,4.0,4.0,Where are the tangerines in the scene?,37.0,2.0,,,,
Encode-Decode_Experiment-13-1,2411268,encoding,0.019112,0.4,0.3966,0.1779,10,4,False,0.261656,0.271142,12,5,21,17,0.8095,0.283792,1.0,6461.0,4.0,4.0,Where is the fruit branch relative to the child?,1.0,3457.0,2.0,2.0,What is the child holding while picking fruit?,39.0,2.0,,,,
Encode-Decode_Experiment-13-1,2374670,encoding,0.226189,0.473684,0.443421,0.133796,19,9,False,0.237692,0.276194,25,7,35,32,0.9143,0.259207,1.0,5496.0,3.0,3.0,Where is the man standing relative to the vehicle?,1.0,4751.0,1.0,1.0,What vehicle sprays water in the scene?,41.0,2.0,,,,
Encode-Decode_Experiment-13-1,2344622,encoding,1.476616,0.304348,0.16613,0.093604,23,7,False,0.166774,0.290839,15,13,33,28,0.8485,0.25128,1.0,3713.0,4.0,4.0,What is the cat resting its head on?,1.0,4659.0,2.0,2.0,Where is the cat located?,44.0,2.0,,,,
Encode-Decode_Experiment-13-1,2386442,decoding,1.175095,0.571429,0.330429,0.20509,7,4,False,0.036244,0.058128,7,5,12,12,1.0,0.045363,,,,,,,,,,,,,woman man and child all burshing teeth man in purple shirt man on right woman left baby middle,32023.0,1.0,Which description best matches the image?
Encode-Decode_Experiment-13-1,2369373,decoding,-1.02837,0.333333,0.651,0.308903,3,1,False,0.078988,0.18787,10,2,12,12,1.0,0.097135,,,,,,,,,,,,,chef with white hat and apron on left placing pizza on pizza pan into oven shaped like someone with mouth open on right,33847.0,2.0,Which description best matches the image?
Encode-Decode_Experiment-13-1,2360001,decoding,-0.63251,0.222222,0.338111,0.183221,9,2,False,0.306342,0.269729,4,8,12,12,1.0,0.281933,,,,,,,,,,,,,4 men on scaffolding raising clock up on left side of building,23887.0,3.0,Which description best matches the image?
Encode-Decode_Experiment-13-1,2347400,decoding,,0.0,0.0,0.0,2,0,False,,0.041128,0,11,11,11,1.0,0.041128,,,,,,,,,,,,,two men on sofa sniffing red wine,10157.0,4.0,Which description best matches the image?
Encode-Decode_Experiment-13-1,2362704,decoding,,0.0,0.0,0.0,2,0,False,,0.108096,0,8,8,8,1.0,0.108096,,,,,,,,,,,,,two bears eating pumpkins brow bears,12264.0,5.0,Which description best matches the image?
Encode-Decode_Experiment-13-1,2344622,decoding,,1.0,1.0,0.0,3,3,False,0.171126,,9,0,10,9,0.9,0.16143,,,,,,,,,,,,,brown spripyish cat asleep on blue blanket on desk on left man typing on keybpard next to cat on right,31150.0,6.0,Which description best matches the image?
Encode-Decode_Experiment-13-1,150472,decoding,,0.0,0.0,0.0,1,0,True,,0.108412,0,7,7,7,1.0,0.108412,,,,,,,,,,,,,two girls on street pretending to eat on big pizza slice on paper plate,20883.0,7.0,Which description best matches the image?
Encode-Decode_Experiment-13-1,2387122,decoding,,1.0,1.0,0.0,1,1,True,0.194195,,7,0,8,7,0.875,0.185302,,,,,,,,,,,,,polar bear in water hands on glass man taking photo of ot,13537.0,8.0,Which description best matches the image?
Encode-Decode_Experiment-13-1,2394020,decoding,,,,,0,0,True,,0.127252,0,7,7,7,1.0,0.127252,,,,,,,,,,,,,two men middle aged in cow boy hats riding two horses along beach,14734.0,9.0,Which description best matches the image?
Encode-Decode_Experiment-13-1,2385851,decoding,,0.0,0.0,0.0,2,0,False,,0.204618,0,5,5,5,1.0,0.204618,,,,,,,,,,,,,two men carrying red suitcases through underpass thing,21170.0,10.0,Which description best matches the image?
Encode-Decode_Experiment-13-1,2379478,decoding,-0.020923,0.666667,0.673,0.302699,3,2,False,0.425838,0.841387,5,2,7,7,1.0,0.544567,,,,,,,,,,,,,two babie drink milk next to eachother out of bottle while lying on a bed,21189.0,11.0,Which description best matches the image?
Encode-Decode_Experiment-13-1,2397102,decoding,,,,,0,0,True,,0.071473,0,13,13,13,1.0,0.071473,,,,,,,,,,,,,woman in bright pink dress on left and man on right in suit holding beer bottle both cut cake together cake white woth colourful accents,38392.0,12.0,Which description best matches the image?
Encode-Decode_Experiment-13-1,2374670,decoding,,0.0,0.0,0.0,1,0,True,,0.175631,0,6,6,6,1.0,0.175631,,,,,,,,,,,,,one man driving red truck on road another on back with spray coming out of back at bottom,25600.0,13.0,Which description best matches the image?
Encode-Decode_Experiment-13-1,2350974,decoding,1.629215,1.0,0.664,0.206234,7,7,False,0.32087,,9,0,9,9,1.0,0.32087,,,,,,,,,,,,,dont remember,8635.0,14.0,Which description best matches the image?
Encode-Decode_Experiment-13-1,2408717,decoding,,0.0,0.0,0.0,1,0,True,,0.067754,0,8,8,8,1.0,0.067754,,,,,,,,,,,,,four girls carry 4 surfboards two red towards the ocean,24004.0,15.0,Which description best matches the image?
Encode-Decode_Experiment-13-1,2347025,decoding,,1.0,1.0,0.0,3,3,False,0.101435,,8,0,9,8,0.8889,0.119073,,,,,,,,,,,,,mum carrying baby on back baby holding umbrella,13789.0,16.0,Which description best matches the image?
Encode-Decode_Experiment-13-1,2383555,decoding,-0.710343,0.0,0.06875,0.096784,8,0,False,,0.19994,0,14,14,14,1.0,0.19994,,,,,,,,,,,,,four people on boat one rowing one carrying baby,15271.0,17.0,Which description best matches the image?
Encode-Decode_Experiment-13-1,2370664,decoding,,,,,0,0,True,,0.249416,0,12,12,12,1.0,0.249416,,,,,,,,,,,,,two people eating pink donuts,9069.0,18.0,Which description best matches the image?
Encode-Decode_Experiment-13-1,2371471,decoding,,1.0,1.0,0.0,1,1,True,0.065211,,5,0,5,5,1.0,0.065211,,,,,,,,,,,,,two stuntmen two motor bikes one on left riding through air one on right doing handstand in air towards a dirt ramp,25356.0,19.0,Which description best matches the image?
Encode-Decode_Experiment-13-1,2367132,decoding,,0.0,0.0,0.0,1,0,True,,0.031642,0,4,5,4,0.8,0.03879,,,,,,,,,,,,,girl on sofa two dad looking men playing wii with contoller in both hands,21863.0,20.0,Which description best matches the image?
Encode-Decode_Experiment-13-1,2412687,decoding,,0.0,0.0,0.0,1,0,True,,0.021042,0,17,17,17,1.0,0.021042,,,,,,,,,,,,,dont remeber,3174.0,21.0,Which description best matches the image?
Encode-Decode_Experiment-13-1,2385550,decoding,,1.0,1.0,0.0,1,1,True,0.282991,,6,0,6,6,1.0,0.282991,,,,,,,,,,,,,boy on left younger girl on right both have tangerines in mouth boy is wearing a hoodie woth different coloured inside of hood,35353.0,22.0,Which description best matches the image?
Encode-Decode_Experiment-13-1,2345035,decoding,,,,,0,0,True,,0.267966,0,6,6,6,1.0,0.267966,,,,,,,,,,,,,two girls on left chasing after ball people in back ground on a feild,16715.0,23.0,Which description best matches the image?
Encode-Decode_Experiment-13-1,2356125,decoding,,,,,0,0,True,,0.015553,0,14,14,14,1.0,0.015553,,,,,,,,,,,,,four people two helping suitycase onto belt two standing on left two other suitcases in image,28225.0,24.0,Which description best matches the image?
Encode-Decode_Experiment-13-1,2409918,decoding,,0.0,0.0,0.0,1,0,True,,0.019074,0,11,11,11,1.0,0.019074,,,,,,,,,,,,,two men two elephants in water one fed plants on right,13211.0,25.0,Which description best matches the image?
Encode-Decode_Experiment-13-1,2411268,decoding,,,,,0,0,True,,0.085822,0,5,5,5,1.0,0.085822,,,,,,,,,,,,,dont remeber,2924.0,26.0,Which description best matches the image?
Encode-Decode_Experiment-13-1,2349475,decoding,0.733089,0.333333,0.163,0.23235,3,1,False,0.101825,0.16438,2,6,8,8,1.0,0.148741,,,,,,,,,,,,,three people one blender in garden one hold lid one ride bike to power it,17671.0,27.0,Which description best matches the image?
Encode-Decode_Experiment-13-1,2348899,decoding,0.018788,0.666667,0.661,0.301609,3,2,False,0.161789,0.018824,4,3,7,7,1.0,0.100518,,,,,,,,,,,,,three men one woman shes playing with mans pink and whote stripe tie,17678.0,28.0,Which description best matches the image?
Encode-Decode_Experiment-13-1,2410309,decoding,0.012783,0.333333,0.3305,0.221655,6,2,False,0.21398,0.276952,4,7,11,11,1.0,0.254053,,,,,,,,,,,,,babay on right mum on left on sofa both on keyboards on two different laptops,19773.0,29.0,Which description best matches the image?
Encode-Decode_Experiment-13-1,2356991,decoding,,0.0,0.0,0.0,8,0,False,,0.053085,0,15,15,15,1.0,0.053085,,,,,,,,,,,,,man closest dove to floor man behind standing up ready to catch ball,17896.0,30.0,Which description best matches the image?
Encode-Decode_Experiment-14-1,2369373,encoding,1.436457,0.444444,0.269333,0.121905,18,8,False,0.201006,0.326698,14,8,25,22,0.88,0.222772,0.0,5927.0,2.0,3.0,What is the appearance of the oven?,1.0,4681.0,3.0,3.0,What tool is the chef using?,1.0,1.0,,,,
Encode-Decode_Experiment-14-1,2397102,encoding,3.841226,0.37931,0.122724,0.066798,29,11,False,0.11555,0.149194,21,15,37,36,0.973,0.126972,1.0,4256.0,1.0,1.0,What are the couple doing with the cake?,1.0,4480.0,3.0,3.0,What is the man holding besides the cake knife?,2.0,2.0,,,,
Encode-Decode_Experiment-14-1,2350974,encoding,2.712301,0.6,0.28845,0.114866,20,12,False,0.287804,0.272957,27,3,33,30,0.9091,0.279347,1.0,12366.0,4.0,4.0,Between which two objects is the child standing?,1.0,3297.0,1.0,1.0,What is the child up against?,3.0,2.0,,,,
Encode-Decode_Experiment-14-1,2362704,encoding,1.405212,0.173913,0.082522,0.065037,23,4,False,0.323391,0.188194,9,19,30,28,0.9333,0.248635,1.0,2038.0,2.0,2.0,How many bears are in the scene?,1.0,3418.0,4.0,4.0,What are the bears doing with the pumpkins?,4.0,2.0,,,,
Encode-Decode_Experiment-14-1,2347025,encoding,0.138287,0.684211,0.667737,0.119127,19,13,False,0.144578,0.062884,21,4,29,25,0.8621,0.129955,1.0,6163.0,1.0,1.0,Where is the baby in relation to the mother?,0.0,4779.0,3.0,2.0,Who is holding the umbrella in the scene?,5.0,1.0,,,,
Encode-Decode_Experiment-14-1,2408717,encoding,1.009447,0.26087,0.178,0.082094,23,6,False,0.321244,0.267482,12,14,33,26,0.7879,0.264068,1.0,2100.0,2.0,2.0,How many surfers are in the scene?,1.0,4261.0,3.0,3.0,What are the surfers doing with the surfboards?,6.0,2.0,,,,
Encode-Decode_Experiment-14-1,2383555,encoding,-0.84846,0.045455,0.107,0.072538,22,1,False,0.40903,0.212643,2,23,32,25,0.7812,0.213888,1.0,4001.0,2.0,2.0,Who is holding the child in the boat?,1.0,3810.0,4.0,4.0,What is the woman at the back doing in the boat?,7.0,2.0,,,,
Encode-Decode_Experiment-14-1,2347400,encoding,2.033132,0.375,0.195417,0.088328,24,9,False,0.190789,0.219729,20,11,36,31,0.8611,0.205055,1.0,4992.0,3.0,3.0,What are the men doing with the wine?,1.0,2760.0,1.0,1.0,What are the men sitting on in the scene?,8.0,2.0,,,,
Encode-Decode_Experiment-14-1,2409918,encoding,1.515797,0.45,0.28035,0.111921,20,9,False,0.095327,0.10184,20,11,33,31,0.9394,0.104578,0.0,9799.0,1.0,2.0,What is the elephant on the right (from your perspective) doing with its trunk?,1.0,3591.0,4.0,4.0,Where are the elephants in the scene?,9.0,1.0,,,,
Encode-Decode_Experiment-14-1,2356991,encoding,0.473833,0.2,0.15932,0.085853,25,5,False,0.155579,0.201171,8,24,33,32,0.9697,0.189783,1.0,9904.0,2.0,2.0,What is the current action of the gloved player on the base?,1.0,6912.0,1.0,1.0,How is the player on the left (from your perspective) reaching the base?,10.0,2.0,,,,
Encode-Decode_Experiment-14-1,2411268,encoding,2.938451,0.555556,0.221056,0.113835,18,10,False,0.157453,0.178419,16,11,33,27,0.8182,0.164798,1.0,7538.0,2.0,2.0,What is the child holding while picking fruit?,1.0,7174.0,4.0,4.0,Where is the fruit branch relative to the child?,11.0,2.0,,,,
Encode-Decode_Experiment-14-1,2370664,encoding,0.09714,0.173913,0.166087,0.080565,23,4,False,0.23596,0.091393,12,23,37,35,0.9459,0.147265,1.0,3149.0,4.0,4.0,How many donuts are in the scene?,1.0,5105.0,1.0,1.0,Where are the people located in the scene?,12.0,2.0,,,,
Encode-Decode_Experiment-14-1,2387122,encoding,0.509501,0.5,0.435455,0.126684,22,11,False,0.114624,0.070043,21,8,34,29,0.8529,0.109765,1.0,9959.0,1.0,1.0,What is the polar bear doing next to the enclosure edge?,1.0,3811.0,3.0,3.0,Where is the polar bear located in the scene?,13.0,2.0,,,,
Encode-Decode_Experiment-14-1,2374670,encoding,1.280649,0.478261,0.332348,0.113937,23,11,False,0.249489,0.191983,18,9,32,27,0.8438,0.235517,1.0,11581.0,3.0,3.0,Where is the man standing relative to the vehicle?,1.0,5812.0,1.0,1.0,What vehicle sprays water in the scene?,15.0,2.0,,,,
Encode-Decode_Experiment-14-1,2344622,encoding,0.544709,0.25,0.19535,0.100329,20,5,False,0.154286,0.213588,10,15,31,25,0.8065,0.213326,1.0,4246.0,4.0,4.0,What is the cat resting its head on?,1.0,5657.0,2.0,2.0,Where is the cat located?,16.0,2.0,,,,
Encode-Decode_Experiment-14-1,2356125,encoding,0.717822,0.296296,0.231481,0.090294,27,8,False,0.280217,0.247689,17,13,36,30,0.8333,0.255928,0.0,6148.0,4.0,2.0,How many uniformed staff are moving the luggage?,1.0,4147.0,1.0,1.0,Where is the luggage being moved to?,17.0,1.0,,,,
Encode-Decode_Experiment-14-1,2360001,encoding,2.320179,0.269231,0.1145,0.066689,26,7,False,0.371708,0.245339,14,17,32,31,0.9688,0.318284,1.0,4558.0,4.0,4.0,Where are the men standing?,1.0,5194.0,4.0,4.0,What are the workers doing to the clock?,18.0,2.0,,,,
Encode-Decode_Experiment-14-1,2367132,encoding,2.619632,0.428571,0.179952,0.094906,21,9,False,0.109982,0.086747,22,8,33,30,0.9091,0.100056,1.0,7143.0,4.0,4.0,In which hand(s) are the men holding the controllers?,1.0,3069.0,2.0,2.0,How many men are playing in the scene?,19.0,2.0,,,,
Encode-Decode_Experiment-14-1,2371471,encoding,-0.129305,0.333333,0.347542,0.109883,24,8,False,0.352704,0.488962,19,13,32,32,1.0,0.408059,1.0,9321.0,2.0,2.0,What stunt is one motorcyclist performing?,1.0,5747.0,3.0,3.0,What is nearest to the motorcyclists?,21.0,2.0,,,,
Encode-Decode_Experiment-14-1,2349475,encoding,-0.367195,0.068966,0.089241,0.055218,29,2,False,0.111236,0.069909,4,29,35,33,0.9429,0.077785,0.0,6205.0,2.0,1.0,What is the man doing to power the blender?,1.0,3986.0,3.0,3.0,Which part of the blender is the woman holding?,27.0,1.0,,,,
Encode-Decode_Experiment-14-1,2410309,encoding,0.556816,0.291667,0.238125,0.096157,24,7,False,0.138473,0.263642,14,16,32,30,0.9375,0.204776,1.0,3562.0,4.0,4.0,How many laptops or electronic devices are visible?,1.0,4495.0,2.0,2.0,What is the baby touching?,30.0,2.0,,,,
Encode-Decode_Experiment-14-1,150472,encoding,1.234119,0.363636,0.240136,0.100071,22,8,False,0.095566,0.081963,18,13,31,31,1.0,0.089862,1.0,2356.0,4.0,4.0,How many women are in the scene?,1.0,3474.0,2.0,2.0,Where is the pizza slice located?,31.0,2.0,,,,
Encode-Decode_Experiment-14-1,2386442,encoding,3.735814,0.692308,0.293846,0.10666,26,18,False,0.114149,0.106087,26,7,33,33,1.0,0.112439,1.0,5893.0,3.0,3.0,What is the person on the right wearing?,1.0,5111.0,1.0,1.0,Who is brushing their teeth in the scene?,32.0,2.0,,,,
Encode-Decode_Experiment-14-1,2394020,encoding,3.142319,0.636364,0.301136,0.106681,22,14,False,0.276657,0.296235,19,8,33,27,0.8182,0.293586,0.0,5297.0,4.0,1.0,Where is the scene taking place?,1.0,4901.0,2.0,2.0,What are the riders wearing on their heads?,33.0,1.0,,,,
Encode-Decode_Experiment-14-1,2385851,encoding,0.548615,0.136364,0.0995,0.067194,22,3,False,0.125317,0.240421,6,18,27,24,0.8889,0.226293,1.0,2432.0,2.0,2.0,What are the men doing with the suitcases?,1.0,9734.0,3.0,3.0,Where are the men?,35.0,2.0,,,,
Encode-Decode_Experiment-14-1,2385550,encoding,-0.836359,0.095238,0.175429,0.095881,21,2,False,0.368029,0.282615,4,22,27,26,0.963,0.288785,1.0,2935.0,4.0,4.0,Where are the tangerines in the scene?,1.0,6075.0,3.0,3.0,Which side of the frame is the boy on? (from your perspective),36.0,2.0,,,,
Encode-Decode_Experiment-14-1,2345035,encoding,-0.717731,0.1,0.1709,0.098784,20,2,False,0.109165,0.162186,5,19,33,24,0.7273,0.143989,0.0,7745.0,4.0,3.0,What are the people doing with the football?,1.0,5836.0,2.0,2.0,Who runs toward the football in the scene?,44.0,1.0,,,,
Encode-Decode_Experiment-14-1,2379478,encoding,2.698042,0.521739,0.234739,0.106373,23,12,False,0.344475,0.329327,20,8,33,28,0.8485,0.350471,0.0,3323.0,3.0,4.0,What is the position of the babies?,1.0,1994.0,2.0,2.0,How many babies are visible in the scene?,45.0,1.0,,,,
Encode-Decode_Experiment-14-1,2412687,encoding,-0.388971,0.375,0.430187,0.141881,16,6,False,0.136834,0.129977,12,11,28,23,0.8214,0.129204,1.0,2710.0,4.0,4.0,What is the dog biting onto in the scene?,1.0,7457.0,3.0,3.0,What is the human's body position?,46.0,2.0,,,,
Encode-Decode_Experiment-14-1,2348899,encoding,4.824092,0.730769,0.279808,0.093481,26,19,False,0.204805,0.124355,31,1,32,32,1.0,0.202291,1.0,4351.0,1.0,1.0,Where is the woman located relative to the man? (from your perspective),1.0,4085.0,4.0,4.0,What is the woman doing?,58.0,2.0,,,,
Encode-Decode_Experiment-14-1,2369373,decoding,0.656337,0.5,0.3938,0.161807,10,5,False,0.119415,0.485564,13,4,17,17,1.0,0.205568,,,,,,,,,,,,,a chef in a white uniform using a pizza slice to get pizza out of an open over with fire. above the oven there is a stone figure of a face,65556.0,1.0,Which description best matches the image?
Encode-Decode_Experiment-14-1,2387122,decoding,-0.505286,0.2,0.324,0.245406,5,1,False,0.158599,0.151713,4,4,14,8,0.5714,0.12785,,,,,,,,,,,,,a white polar bear is in the water of an aquarium with paws on the glass. the woman is wearing glasses and looking closely at the polar bear,38986.0,3.0,Which description best matches the image?
Encode-Decode_Experiment-14-1,2408717,decoding,,1.0,1.0,0.0,4,4,False,0.083777,,11,0,11,11,1.0,0.083777,,,,,,,,,,,,,four women are carrying their surfboards to the sea. two have a white surfboard and two have a green one,31476.0,4.0,Which description best matches the image?
Encode-Decode_Experiment-14-1,2362704,decoding,-0.379442,0.142857,0.212143,0.182599,7,1,False,0.094662,0.100767,2,7,12,9,0.75,0.080145,,,,,,,,,,,,,two black bears are laying down and eating pumpkins,22395.0,5.0,Which description best matches the image?
Encode-Decode_Experiment-14-1,2348899,decoding,1.158582,0.222222,0.097889,0.107315,9,2,False,0.045404,0.164044,5,8,13,13,1.0,0.118413,,,,,,,,,,,,,three men and one woman are in this picture. the three men are sat down and the woman is touching the third man's pink and white tie,45677.0,6.0,Which description best matches the image?
Encode-Decode_Experiment-14-1,2409918,decoding,-0.14946,0.285714,0.317,0.209325,7,2,False,0.114083,0.086029,3,11,14,14,1.0,0.092041,,,,,,,,,,,,,two grey elephants are swimming in water of a cave and two men are riding them,26700.0,7.0,Which description best matches the image?
Encode-Decode_Experiment-14-1,2397102,decoding,0.724589,0.272727,0.176182,0.133242,11,3,False,0.045029,0.046818,7,10,17,17,1.0,0.046081,,,,,,,,,,,,,a man and a woman are cutting a cake. the man is holding a beer bottle in the other hand. the woman is wearing a pink dress,34121.0,8.0,Which description best matches the image?
Encode-Decode_Experiment-14-1,2371471,decoding,1.289033,1.0,0.667,0.258333,4,4,False,0.170181,,11,0,15,11,0.7333,0.127736,,,,,,,,,,,,,"two men are riding motocycles and jumping in mid air, headed toward a dirt ramp. the man in front is doing a handstand on the bike",35350.0,9.0,Which description best matches the image?
Encode-Decode_Experiment-14-1,2367132,decoding,-1.306166,0.090909,0.307182,0.165578,11,1,False,0.091676,0.030088,2,11,15,13,0.8667,0.042398,,,,,,,,,,,,,two men are holding the remote in both hands and a girl is sat on the couch behind,24467.0,10.0,Which description best matches the image?
Encode-Decode_Experiment-14-1,2385550,decoding,0.148202,0.125,0.106375,0.125673,8,1,False,0.227269,0.16972,2,10,14,12,0.8571,0.163983,,,,,,,,,,,,,a boy on the left and a girl on the right have tangerines in their mouths,24721.0,11.0,Which description best matches the image?
Encode-Decode_Experiment-14-1,2370664,decoding,-0.880151,0.0,0.3315,0.37664,2,0,False,,0.238992,0,5,6,5,0.8333,0.212111,,,,,,,,,,,,,"three people have sugar donuts in their mouths, eating them outside on the street",22622.0,12.0,Which description best matches the image?
Encode-Decode_Experiment-14-1,2410309,decoding,-0.810111,0.0,0.067273,0.083041,11,0,False,,0.083733,0,16,16,16,1.0,0.083733,,,,,,,,,,,,,a woman and a baby are both using two separate laptops,20527.0,13.0,Which description best matches the image?
Encode-Decode_Experiment-14-1,2344622,decoding,0.517849,0.714286,0.601857,0.217107,7,5,False,0.129103,,13,0,13,13,1.0,0.129103,,,,,,,,,,,,,a cat is lying down,14068.0,14.0,Which description best matches the image?
Encode-Decode_Experiment-14-1,2411268,decoding,1.243391,0.571429,0.312143,0.208531,7,4,False,0.147918,0.117184,7,4,13,11,0.8462,0.12006,,,,,,,,,,,,,a girl with pink boots is picking apples from a high branch and putting them into a red bag,26178.0,15.0,Which description best matches the image?
Encode-Decode_Experiment-14-1,2360001,decoding,0.07044,0.1,0.0929,0.100795,10,1,False,0.068476,0.190272,2,11,14,13,0.9286,0.166395,,,,,,,,,,,,,"a group of people are stood on scaffolding, attempting to raise the clock",21349.0,16.0,Which description best matches the image?
Encode-Decode_Experiment-14-1,2412687,decoding,-0.049665,0.333333,0.348333,0.302026,3,1,False,0.022005,0.239202,4,3,8,7,0.875,0.10105,,,,,,,,,,,,,,9321.0,17.0,Which description best matches the image?
Encode-Decode_Experiment-14-1,2386442,decoding,-0.222458,0.285714,0.33,0.199074,7,2,False,0.07239,0.057909,4,6,10,10,1.0,0.063701,,,,,,,,,,,,,,9158.0,18.0,Which description best matches the image?
Encode-Decode_Experiment-14-1,2345035,decoding,,0.0,0.0,0.0,5,0,False,,0.209946,0,7,10,7,0.7,0.171448,,,,,,,,,,,,,"two girls, one with a black top and one with a blue top are chasing the football in a field",26088.0,19.0,Which description best matches the image?
Encode-Decode_Experiment-14-1,2356125,decoding,,0.0,0.0,0.0,1,0,True,,0.034831,0,10,10,10,1.0,0.034831,,,,,,,,,,,,,,1271.0,20.0,Which description best matches the image?
Encode-Decode_Experiment-14-1,2349475,decoding,0.10635,0.2,0.1844,0.146686,10,2,False,0.074689,0.053764,4,10,14,14,1.0,0.059742,,,,,,,,,,,,,one person is riding a bike next to the blender and the woman is holding the lid of the blender,29862.0,21.0,Which description best matches the image?
Encode-Decode_Experiment-14-1,2379478,decoding,-0.499393,0.333333,0.455167,0.243963,6,2,False,0.442277,0.313625,4,3,11,7,0.6364,0.262572,,,,,,,,,,,,,"two babies are lying on a bed, drinking milk out of a bottle",17597.0,22.0,Which description best matches the image?
Encode-Decode_Experiment-14-1,2347025,decoding,0.364068,0.727273,0.666727,0.166303,11,8,False,0.127211,0.014306,13,1,15,14,0.9333,0.116392,,,,,,,,,,,,,a woman is holding a baby on her back and the baby is holding a pink umbrella,24254.0,23.0,Which description best matches the image?
Encode-Decode_Experiment-14-1,2356991,decoding,,0.0,0.0,0.0,3,0,False,,0.040663,0,15,16,15,0.9375,0.047556,,,,,,,,,,,,,one man on the base is trying to catch the ball. another man is diving head-first for the base,26070.0,24.0,Which description best matches the image?
Encode-Decode_Experiment-14-1,2350974,decoding,1.329524,0.5,0.2888,0.158854,10,5,False,0.190157,0.309746,11,3,15,14,0.9333,0.204647,,,,,,,,,,,,,,948.0,25.0,Which description best matches the image?
Encode-Decode_Experiment-14-1,2385851,decoding,0.408758,0.142857,0.094571,0.118128,7,1,False,0.11042,0.343492,2,6,10,8,0.8,0.230591,,,,,,,,,,,,,two men are carrying two big red suitcases up a ramp under a cover. they're carrying the suitcases on their backs,31927.0,26.0,Which description best matches the image?
Encode-Decode_Experiment-14-1,2383555,decoding,,0.0,0.0,0.0,5,0,False,,0.117097,0,11,11,11,1.0,0.117097,,,,,,,,,,,,,,1875.0,27.0,Which description best matches the image?
Encode-Decode_Experiment-14-1,2374670,decoding,2.865198,0.8,0.3043,0.173007,10,8,False,0.200877,0.604346,15,2,17,17,1.0,0.248344,,,,,,,,,,,,,a man is on the back of a red truck that is spraying water on the ground,21762.0,28.0,Which description best matches the image?
Encode-Decode_Experiment-14-1,150472,decoding,1.068055,0.714286,0.503,0.197823,7,5,False,0.06774,0.027978,8,4,12,12,1.0,0.054486,,,,,,,,,,,,,two women are sharing a pizza slice off a paper plate,17318.0,29.0,Which description best matches the image?
Encode-Decode_Experiment-14-1,2347400,decoding,1.364864,1.0,0.6634,0.246618,5,5,False,0.09168,,11,0,11,11,1.0,0.09168,,,,,,,,,,,,,two men are sat on the couch and both have a glass of red wine that they are smelling,29826.0,30.0,Which description best matches the image?
Encode-Decode_Experiment-15-1,2347025,encoding,-0.104589,0.785714,0.798929,0.126345,14,11,False,0.067175,0.083575,42,2,49,44,0.898,0.079173,1.0,6200.0,2.0,2.0,Who is holding the umbrella in the scene?,1.0,2622.0,1.0,1.0,Where is the baby in relation to the mother?,1.0,2.0,,,,
Encode-Decode_Experiment-15-1,2374670,encoding,0.823044,0.416667,0.323792,0.112843,24,10,False,0.230862,0.247911,25,9,35,34,0.9714,0.242316,1.0,7792.0,1.0,1.0,What vehicle sprays water in the scene?,0.0,4486.0,2.0,3.0,Where is the man standing relative to the vehicle?,2.0,1.0,,,,
Encode-Decode_Experiment-15-1,2369373,encoding,1.50858,0.4375,0.250875,0.123709,16,7,False,0.185941,0.287374,21,10,37,31,0.8378,0.191001,1.0,4360.0,3.0,3.0,What tool is the chef using?,1.0,3235.0,3.0,3.0,What is the appearance of the oven?,3.0,2.0,,,,
Encode-Decode_Experiment-15-1,2371471,encoding,0.760647,0.45,0.35825,0.120621,20,9,False,0.214091,0.578966,21,17,38,38,1.0,0.377325,1.0,5313.0,2.0,2.0,What stunt is one motorcyclist performing?,1.0,8140.0,3.0,3.0,What is nearest to the motorcyclists?,4.0,2.0,,,,
Encode-Decode_Experiment-15-1,2349475,encoding,0.74524,0.285714,0.209952,0.101661,21,6,False,0.088462,0.044051,16,19,37,35,0.9459,0.068249,1.0,4076.0,3.0,3.0,Which part of the blender is the woman holding?,1.0,4491.0,1.0,1.0,What is the man doing to power the blender?,5.0,2.0,,,,
Encode-Decode_Experiment-15-1,2356125,encoding,0.744871,0.28,0.216,0.085921,25,7,False,0.289355,0.192174,15,25,45,40,0.8889,0.230506,1.0,7624.0,1.0,1.0,Where is the luggage being moved to?,1.0,5413.0,2.0,2.0,How many uniformed staff are moving the luggage?,6.0,2.0,,,,
Encode-Decode_Experiment-15-1,2386442,encoding,5.329251,0.708333,0.202167,0.094979,24,17,False,0.119667,0.143727,49,4,53,53,1.0,0.121483,1.0,4191.0,3.0,3.0,What is the person on the right wearing?,1.0,2598.0,1.0,1.0,Who is brushing their teeth in the scene?,7.0,2.0,,,,
Encode-Decode_Experiment-15-1,2385550,encoding,-0.241808,0.076923,0.098077,0.087482,13,1,False,0.219235,0.15114,7,30,38,37,0.9737,0.176826,1.0,3406.0,4.0,4.0,Where are the tangerines in the scene?,1.0,3460.0,3.0,3.0,Which side of the frame is the boy on? (from your perspective),9.0,2.0,,,,
Encode-Decode_Experiment-15-1,2362704,encoding,-0.729997,0.190476,0.26981,0.108676,21,4,False,0.178577,0.16486,13,21,34,34,1.0,0.170104,1.0,1438.0,2.0,2.0,How many bears are in the scene?,1.0,2827.0,4.0,4.0,What are the bears doing with the pumpkins?,11.0,2.0,,,,
Encode-Decode_Experiment-15-1,2410309,encoding,0.413012,0.25,0.201,0.11864,16,4,False,0.325309,0.279604,6,23,30,29,0.9667,0.288897,1.0,4005.0,2.0,2.0,What is the baby touching?,1.0,3441.0,4.0,4.0,How many laptops or electronic devices are visible?,12.0,2.0,,,,
Encode-Decode_Experiment-15-1,2412687,encoding,2.720342,0.647059,0.313882,0.122476,17,11,False,0.14633,0.40504,30,2,35,32,0.9143,0.15471,1.0,3573.0,4.0,4.0,What is the dog biting onto in the scene?,1.0,4651.0,3.0,3.0,What is the human's body position?,13.0,2.0,,,,
Encode-Decode_Experiment-15-1,2409918,encoding,2.357866,0.521739,0.277652,0.10352,23,12,False,0.12614,0.121713,23,9,39,32,0.8205,0.14756,0.0,6143.0,4.0,2.0,What is the elephant on the right (from your perspective) doing with its trunk?,1.0,5553.0,4.0,4.0,Where are the elephants in the scene?,14.0,1.0,,,,
Encode-Decode_Experiment-15-1,2344622,encoding,1.846181,0.388889,0.193167,0.106015,18,7,False,0.164272,0.119036,15,16,35,31,0.8857,0.154646,1.0,5472.0,2.0,2.0,Where is the cat located?,1.0,3186.0,4.0,4.0,What is the cat resting its head on?,15.0,2.0,,,,
Encode-Decode_Experiment-15-1,150472,encoding,1.306447,0.423077,0.290346,0.101597,26,11,False,0.069874,0.099435,27,12,39,39,1.0,0.07897,1.0,4101.0,2.0,2.0,Where is the pizza slice located?,1.0,2987.0,4.0,4.0,How many women are in the scene?,16.0,2.0,,,,
