SubjectID,StimID,Question,Accuracy,RT_ms,Response,CorrectKey,TrialIndex
Encode-Decode_Experiment-18-1,1081,9 * 11 = ?,1,1664,3,3,1
Encode-Decode_Experiment-18-1,1069,85 - 65 = ?,1,1362,2,2,2
Encode-Decode_Experiment-18-1,1071,8 * 12 = ?,1,2323,3,3,3
Encode-Decode_Experiment-18-1,1090,7 * 7 = ?,1,1706,4,4,4
Encode-Decode_Experiment-18-1,1028,5 * 7 = ?,1,1290,3,3,5
Encode-Decode_Experiment-18-1,1055,40 - 24 = ?,0,1356,2,3,6
Encode-Decode_Experiment-18-1,1082,100 - 3 = ?,1,1634,2,2,7
Encode-Decode_Experiment-18-1,1015,6 * 8 = ?,0,2382,4,2,8
Encode-Decode_Experiment-18-1,1018,33 + 47 = ?,1,2492,2,2,9
Encode-Decode_Experiment-18-1,1098,37 + 22 = ?,1,1830,3,3,10
Encode-Decode_Experiment-18-1,1108,5 * 11 = ?,1,1082,3,3,11
Encode-Decode_Experiment-18-1,1048,75 - 34 = ?,0,2036,1,4,12
Encode-Decode_Experiment-18-1,1026,71 - 39 = ?,0,4016,2,3,13
Encode-Decode_Experiment-18-1,1013,95 - 77 = ?,1,3789,2,2,14
Encode-Decode_Experiment-18-1,1095,32 + 74 = ?,1,3555,2,2,15
Encode-Decode_Experiment-18-1,1119,8 * 11 = ?,1,978,3,3,16
Encode-Decode_Experiment-18-1,1121,100 - 71 = ?,1,3904,3,3,17
Encode-Decode_Experiment-18-1,1006,100 - 87 = ?,1,2521,1,1,18
Encode-Decode_Experiment-18-1,1064,67 + 72 = ?,1,4026,2,2,19
Encode-Decode_Experiment-18-1,1009,30 + 17 = ?,1,1438,1,1,20
Encode-Decode_Experiment-18-1,1086,10 * 10 = ?,1,1258,4,4,21
Encode-Decode_Experiment-18-1,1001,42 + 25 = ?,1,2517,1,1,22
Encode-Decode_Experiment-18-1,1083,93 - 87 = ?,1,3270,1,1,23
Encode-Decode_Experiment-18-1,1077,92 - 54 = ?,0,3672,2,3,24
Encode-Decode_Experiment-18-1,1030,25 + 35 = ?,1,2747,3,3,25
Encode-Decode_Experiment-18-1,1138,10 * 9 = ?,1,1610,4,4,26
Encode-Decode_Experiment-18-1,1101,9 * 10 = ?,1,1127,3,3,27
Encode-Decode_Experiment-18-1,1067,45 - 39 = ?,1,4918,3,3,28
Encode-Decode_Experiment-18-1,1134,100 - 4 = ?,1,1767,4,4,29
Encode-Decode_Experiment-18-1,1021,46 + 1 = ?,1,1173,2,2,30
Encode-Decode_Experiment-18-1,1054,100 - 30 = ?,1,1131,1,1,31
Encode-Decode_Experiment-18-1,1099,79 + 52 = ?,1,3595,2,2,32
Encode-Decode_Experiment-18-1,1036,4 * 10 = ?,1,1169,3,3,33
Encode-Decode_Experiment-18-1,1136,4 * 10 = ?,1,1223,4,4,34
Encode-Decode_Experiment-18-1,1085,90 + 52 = ?,1,2676,4,4,35
Encode-Decode_Experiment-18-1,1133,68 + 50 = ?,0,2806,4,3,36
Encode-Decode_Experiment-18-1,1033,7 * 3 = ?,1,2098,3,3,37
Encode-Decode_Experiment-18-1,1105,75 + 74 = ?,1,1940,3,3,38
Encode-Decode_Experiment-18-1,1003,10 * 9 = ?,1,1019,1,1,39
Encode-Decode_Experiment-18-1,1143,65 - 50 = ?,1,1792,2,2,40
Encode-Decode_Experiment-18-1,1032,23 + 27 = ?,1,2685,3,3,41
Encode-Decode_Experiment-18-1,1107,95 - 2 = ?,1,1287,3,3,42
Encode-Decode_Experiment-18-1,1120,10 * 11 = ?,0,1048,1,4,43
Encode-Decode_Experiment-18-1,1078,56 + 15 = ?,0,3316,2,1,44
Encode-Decode_Experiment-18-1,1116,35 - 24 = ?,1,2076,2,2,45
Encode-Decode_Experiment-18-1,1045,27 + 38 = ?,1,7503,4,4,46
Encode-Decode_Experiment-18-1,1113,71 + 87 = ?,1,2960,1,1,47
Encode-Decode_Experiment-18-1,1074,100 - 47 = ?,1,2815,4,4,48
Encode-Decode_Experiment-18-1,1123,67 - 37 = ?,1,1691,3,3,49
Encode-Decode_Experiment-18-1,1058,84 + 92 = ?,0,4277,3,4,50
Encode-Decode_Experiment-18-1,1148,21 - 18 = ?,1,3287,2,2,51
Encode-Decode_Experiment-18-1,1094,48 + 86 = ?,1,4529,2,2,52
Encode-Decode_Experiment-18-1,1145,12 * 4 = ?,1,2289,1,1,53
Encode-Decode_Experiment-18-1,1140,10 * 12 = ?,1,1587,2,2,54
Encode-Decode_Experiment-18-1,1061,83 + 59 = ?,1,4041,3,3,55
Encode-Decode_Experiment-18-1,1052,31 + 28 = ?,1,2861,4,4,56
Encode-Decode_Experiment-18-1,1147,28 + 37 = ?,0,2400,3,2,57
Encode-Decode_Experiment-18-1,1122,39 + 39 = ?,1,2597,2,2,58
Encode-Decode_Experiment-18-1,1110,83 + 43 = ?,1,4154,2,2,59
Encode-Decode_Experiment-18-1,1037,33 - 10 = ?,1,1985,4,4,60
Encode-Decode_Experiment-18-1,1012,63 - 35 = ?,0,3519,4,1,61
Encode-Decode_Experiment-18-1,1091,75 - 51 = ?,1,3951,1,1,62
Encode-Decode_Experiment-18-1,1137,97 - 87 = ?,1,1511,2,2,63
Encode-Decode_Experiment-18-1,1126,74 - 6 = ?,1,1335,3,3,64
Encode-Decode_Experiment-18-1,1124,3 * 12 = ?,1,1879,2,2,65
Encode-Decode_Experiment-18-1,1080,31 + 56 = ?,0,2378,3,2,66
Encode-Decode_Experiment-18-1,1057,27 - 8 = ?,0,0,,2,67
Encode-Decode_Experiment-18-1,1019,3 * 10 = ?,0,0,,2,68
