SubjectID,StimID,Phase,svg_z_enc,svg_obs,svg_null_mean,svg_null_std,n_transitions,n_relational,low_n_enc,mean_salience_relational_enc,mean_salience_nonrelational,n_relational_fixations,n_nonrelational_fixations,n_fixations_enc,n_aoi,aoi_prop_enc,mean_salience_enc,enc_q1_accuracy,enc_q1_rt_ms,enc_q1_response,enc_q1_correct_key,enc_q1_question,enc_q2_accuracy,enc_q2_rt_ms,enc_q2_response,enc_q2_correct_key,enc_q2_question,enc_trial_index,enc_total_correct,dec_free_response,dec_rt_ms,dec_trial_index,dec_cue_question,prop_total,prop_relations,prop_objects,n_total_recalled,n_relations_recalled,n_objects_recalled,svg_z_enc_image_mean,svg_z_enc_within,svg_z_enc_within_sd,prop_total_image_sd,svg_z_enc_z,svg_z_enc_within_z,n_fixations_enc_z,mean_salience_relational_enc_z,svg_z_enc_image_mean_z
Encode-Decode_Experiment-1-1,2387122,encoding,-0.330065,0.347826,0.387522,0.120266,23,8,False,0.316857,0.346243,16,13,33,29,0.8788,0.308556,1.0,7463.0,1.0,1.0,What is the polar bear doing next to the enclosure edge?,1.0,5668.0,3.0,3.0,Where is the polar bear located in the scene?,2.0,2.0,,,,,0.6470588235294118,0.4,0.6666666666666666,11.0,2.0,8.0,0.9178346818181818,-1.2478996818181818,0.853152743114976,0.17096934150807871,-1.1500868477314194,-1.0838902985235777,-0.18298308332754162,1.5021941035368478,-0.47062414551049625
Encode-Decode_Experiment-1-1,2374670,encoding,-0.476733,0.3,0.35995,0.125752,20,6,False,0.196744,0.192463,22,14,39,36,0.9231,0.212175,0.0,6044.0,4.0,1.0,What vehicle sprays water in the scene?,1.0,9310.0,3.0,3.0,Where is the man standing relative to the vehicle?,3.0,1.0,,,,,0.21052631578947367,0.14285714285714285,0.2727272727272727,4.0,1.0,3.0,1.371793590909091,-1.848526590909091,0.9602344343368724,0.1915646253149963,-1.2523509298893916,-1.6055778101730052,0.9756032734197045,0.08210802387492495,0.06048880686445075
Encode-Decode_Experiment-1-1,2356991,encoding,2.017518,0.321429,0.158786,0.080615,28,9,False,0.148569,0.176891,13,20,37,33,0.8919,0.161358,1.0,10953.0,1.0,1.0,How is the player on the left (from your perspective) reaching the base?,1.0,6687.0,2.0,2.0,What is the current action of the gloved player on the base?,4.0,2.0,,,,,0.7333333333333333,0.5714285714285714,0.5,11.0,4.0,5.0,0.9049161818181819,1.112601818181818,1.0809388187421525,0.24884533735636263,0.4867625044425957,0.9663744084700155,0.5894078211706225,-0.48746102267052077,-0.4857382506373145
Encode-Decode_Experiment-1-1,2412687,encoding,2.830765,0.666667,0.3048,0.127834,15,10,False,0.144164,0.08408,17,9,29,26,0.8966,0.127853,1.0,9147.0,3.0,3.0,What is the human's body position?,1.0,5930.0,4.0,4.0,What is the dog biting onto in the scene?,5.0,2.0,,,,,0.4666666666666667,0.5,0.4444444444444444,7.0,2.0,4.0,1.451365105263158,1.379399894736842,1.1312051634497753,0.283576893365701,1.0537979724569158,1.1981076567880278,-0.9553739878257057,-0.5395409738907118,0.15358415330927788
Encode-Decode_Experiment-1-1,2360001,encoding,-0.770094,0.041667,0.092708,0.06628,24,1,False,0.315042,0.283575,2,35,38,37,0.9737,0.279301,1.0,11249.0,4.0,4.0,What are the workers doing to the clock?,1.0,4944.0,4.0,4.0,Where are the men standing?,6.0,2.0,,,,,0.45,0.42857142857142855,0.5454545454545454,9.0,3.0,6.0,1.2778753636363636,-2.0479693636363634,1.2615430989913956,0.21375836987739374,-1.4568965254245105,-1.7788081504153945,0.7825055472951635,1.4807355084256906,-0.04939159413600724
Encode-Decode_Experiment-1-1,2397102,encoding,3.190341,0.571429,0.227286,0.10787,21,12,False,0.137035,0.164877,24,11,35,35,1.0,0.145785,1.0,4439.0,1.0,1.0,What are the couple doing with the cake?,1.0,4350.0,3.0,3.0,What is the man holding besides the cake knife?,7.0,2.0,,,,,0.5714285714285714,0.6,0.47368421052631576,12.0,3.0,9.0,2.2999614545454543,0.8903795454545458,1.1910826134485393,0.23058448384401836,1.3045118950987664,0.773358440091842,0.2032123689215404,-0.6238265521537627,1.1464064185325504
Encode-Decode_Experiment-1-1,150472,encoding,1.668758,0.35,0.19075,0.09543,20,7,False,0.0896,0.086865,13,17,30,30,1.0,0.08805,1.0,3118.0,4.0,4.0,How many women are in the scene?,1.0,3643.0,2.0,2.0,Where is the pizza slice located?,8.0,2.0,,,,,0.5,0.5,0.5,8.0,2.0,5.0,1.2262495,0.44250849999999997,1.585527302928803,0.19086885825778804,0.2435900244645888,0.38435034254147876,-0.7622762617011647,-1.184646639810913,-0.10979169710947823
Encode-Decode_Experiment-1-1,2379478,encoding,3.182431,0.866667,0.396667,0.147686,15,13,False,0.395444,,34,0,35,34,0.9714,0.406243,1.0,4689.0,4.0,4.0,What is the position of the babies?,1.0,2082.0,2.0,2.0,How many babies are visible in the scene?,9.0,2.0,,,,,0.5625,0.8,0.5,9.0,4.0,5.0,2.2821192,0.9003117999999999,1.138984026211384,0.27100197178886043,1.298996657351817,0.7819853149129007,0.2032123689215404,2.431321714556401,1.1255317263547087
Encode-Decode_Experiment-1-1,2369373,encoding,1.123483,0.6,0.46848,0.117064,25,15,False,0.238755,0.215394,30,10,40,40,1.0,0.232915,1.0,6485.0,3.0,3.0,What tool is the chef using?,1.0,4938.0,3.0,3.0,What is the appearance of the oven?,10.0,2.0,,,,,0.0,0.0,0.0,0.0,0.0,0.0,1.1567880952380951,-0.033305095238095106,1.1961233324682243,0.3247851291499645,-0.1366022969599087,-0.028927861867373027,1.1687009995442454,0.5788006074643535,-0.19105863784005125
Encode-Decode_Experiment-1-1,2347025,encoding,0.098753,0.473684,0.460684,0.131642,19,9,False,0.098077,0.100803,26,11,39,37,0.9487,0.101181,1.0,4866.0,1.0,1.0,Where is the baby in relation to the mother?,1.0,5607.0,2.0,2.0,Who is holding the umbrella in the scene?,11.0,2.0,,,,,0.4,0.5,0.3333333333333333,6.0,2.0,4.0,0.9484400454545454,-0.8496870454545454,1.216251282600781,0.17838999922358828,-0.851094025965136,-0.7380140878051192,0.9756032734197045,-1.0844237688702645,-0.4348171490755773
Encode-Decode_Experiment-1-1,2349475,encoding,1.168152,0.291667,0.184917,0.091384,24,7,False,0.089086,0.054041,15,21,37,36,0.973,0.070533,1.0,4998.0,3.0,3.0,Which part of the blender is the woman holding?,0.0,14841.0,2.0,1.0,What is the man doing to power the blender?,12.0,1.0,,,,,0.6,0.5,0.5384615384615384,12.0,5.0,7.0,1.2590901363636364,-0.09093813636363635,1.198726478834509,0.15352989471574768,-0.10545689178690258,-0.07898628808587259,0.5894078211706225,-1.1907236193630533,-0.07136952499726607
Encode-Decode_Experiment-1-1,2394020,encoding,1.776663,0.615385,0.351692,0.14842,13,8,False,0.183927,0.232903,24,3,33,27,0.8182,0.211957,1.0,11365.0,1.0,1.0,Where is the scene taking place?,1.0,3777.0,2.0,2.0,What are the riders wearing on their heads?,13.0,2.0,,,,,0.5,0.3333333333333333,0.4444444444444444,6.0,1.0,4.0,1.862782909090909,-0.08611990909090883,1.1176687580071856,0.2760044405049513,0.3188266526674414,-0.07480131242390109,-0.18298308332754162,-0.06942630865383427,0.6349257903489757
Encode-Decode_Experiment-1-1,2362704,encoding,-0.792589,0.045455,0.099455,0.068131,22,1,False,0.209003,0.157402,2,24,28,26,0.9286,0.175742,1.0,4644.0,4.0,4.0,What are the bears doing with the pumpkins?,1.0,3040.0,2.0,2.0,How many bears are in the scene?,16.0,2.0,,,,,0.6666666666666666,0.2,0.7142857142857143,6.0,1.0,5.0,0.2529216818181818,-1.0455106818181819,1.0313779255756825,0.22938201361846952,-1.4725811364381165,-0.9081009487672965,-1.1484717139502467,0.22704516848521278,-1.2485445683295646
Encode-Decode_Experiment-1-1,2385550,encoding,2.217431,0.391304,0.199174,0.086646,23,9,False,0.279624,0.292266,19,13,34,32,0.9412,0.305476,1.0,6081.0,3.0,3.0,Which side of the frame is the boy on? (from your perspective),1.0,4534.0,4.0,4.0,Where are the tangerines in the scene?,17.0,2.0,,,,,0.5555555555555556,0.75,0.5,10.0,3.0,7.0,1.6704073636363637,0.5470236363636363,1.32568686484865,0.20260647254233857,0.6261515971993433,0.47512922805923263,0.010114642796999388,1.0619914193640072,0.4098544416762188
Encode-Decode_Experiment-1-1,2410309,encoding,2.29324,0.36,0.16272,0.086027,25,9,False,0.292115,0.298995,17,17,36,34,0.9444,0.285861,1.0,3857.0,2.0,2.0,What is the baby touching?,1.0,3350.0,4.0,4.0,How many laptops or electronic devices are visible?,20.0,2.0,,,,,0.47058823529411764,0.2857142857142857,0.5,8.0,2.0,6.0,0.2172683181818182,2.075971681818182,0.950905645616019,0.23490864783811527,0.6790093289766479,1.8031301704108014,0.39631009504608145,1.2096714808149502,-1.290257513805021
Encode-Decode_Experiment-1-1,2356125,encoding,1.7459,0.32,0.18104,0.079592,25,8,False,0.342058,0.22663,18,15,34,33,0.9706,0.284523,1.0,3847.0,2.0,2.0,How many uniformed staff are moving the luggage?,1.0,5075.0,1.0,1.0,Where is the luggage being moved to?,22.0,2.0,,,,,0.7,0.5714285714285714,0.6923076923076923,14.0,4.0,9.0,0.7261805714285714,1.0197194285714286,0.9748230914120558,0.30641941378257537,0.2973771888483009,0.8856993971135687,0.010114642796999388,1.8001434453529714,-0.6948514453065571
Encode-Decode_Experiment-1-1,2348899,encoding,4.591028,0.75,0.2456,0.109866,20,15,False,0.217957,0.119061,28,4,32,32,1.0,0.205595,1.0,5228.0,4.0,4.0,What is the woman doing?,1.0,9034.0,1.0,1.0,Where is the woman located relative to the man? (from your perspective),23.0,2.0,,,,,0.6086956521739131,0.6666666666666666,0.5882352941176471,14.0,4.0,10.0,3.1134014545454547,1.477626545454545,1.3493713312617182,0.1380990616528036,2.281139178798028,1.283424541887526,-0.37608080945208266,0.3329075710335871,2.0980972243040474
Encode-Decode_Experiment-1-1,2350974,encoding,4.20909,0.736842,0.259579,0.113389,19,14,False,0.272914,0.241189,26,5,38,31,0.8158,0.278012,1.0,5186.0,4.0,4.0,Between which two objects is the child standing?,1.0,8762.0,1.0,1.0,What is the child up against?,24.0,2.0,,,,,0.5833333333333334,0.5,0.5,7.0,2.0,5.0,1.9283305714285712,2.2807594285714288,1.3162197290551871,0.3616449046192094,2.014833379228582,1.9810030036171873,0.7825055472951635,0.9826596434985181,0.7116138160012276
Encode-Decode_Experiment-1-1,2383555,encoding,-0.030115,0.2,0.2028,0.092978,25,5,False,0.211438,0.14111,10,23,34,33,0.9706,0.165578,0.0,7759.0,3.0,2.0,Who is holding the child in the boat?,1.0,4709.0,4.0,4.0,What is the woman at the back doing in the boat?,26.0,1.0,,,,,0.5238095238095238,0.4,0.6363636363636364,11.0,4.0,7.0,0.20344205263157894,-0.23355705263157894,0.9789907763408688,0.25643641938735734,-0.9409470800705546,-0.2028610369787825,0.010114642796999388,0.25583397239467115,-1.3064336666894596
Encode-Decode_Experiment-1-1,2409918,encoding,2.408731,0.473684,0.224211,0.103571,19,9,False,0.169894,0.098334,25,10,35,35,1.0,0.149448,1.0,9968.0,4.0,4.0,Where are the elephants in the scene?,1.0,6438.0,2.0,2.0,What is the elephant on the right (from your perspective) doing with its trunk?,27.0,2.0,,,,,0.625,0.6666666666666666,0.6,10.0,4.0,6.0,2.1853706818181817,0.22336031818181823,1.4120558982527631,0.1397239954818782,0.7595352863259426,0.19400444240812442,0.2032123689215404,-0.23533730876119807,1.0123400032704581
Encode-Decode_Experiment-1-1,2347400,encoding,0.212464,0.222222,0.199444,0.107208,18,4,False,0.198821,0.245429,9,18,30,27,0.9,0.241136,1.0,3779.0,3.0,3.0,What are the men doing with the wine?,1.0,2865.0,1.0,1.0,What are the men sitting on in the scene?,31.0,2.0,,,,,0.5,0.375,0.5,10.0,3.0,6.0,0.8916799545454546,-0.6792159545454546,1.1157371185481555,0.1532970971675589,-0.7718091714210967,-0.5899477293412058,-0.7622762617011647,0.10666422334923505,-0.5012240833951781
Encode-Decode_Experiment-1-1,2408717,encoding,1.46445,0.363636,0.219955,0.098113,22,8,False,0.193703,0.220917,21,11,37,32,0.8649,0.207272,1.0,2675.0,2.0,2.0,How many surfers are in the scene?,1.0,4633.0,3.0,3.0,What are the surfers doing with the surfboards?,32.0,2.0,,,,,0.5,0.2857142857142857,0.5555555555555556,8.0,2.0,5.0,0.5661411363636364,0.8983088636363636,0.7503624691835715,0.17981171008099298,0.1011365233768877,0.7802456211500637,0.5894078211706225,0.04615453201099741,-0.8820908961722178
Encode-Decode_Experiment-1-1,2386442,encoding,2.947547,0.769231,0.331385,0.148546,13,10,False,0.136657,0.144387,33,3,37,36,0.973,0.134292,1.0,6336.0,3.0,3.0,What is the person on the right wearing?,1.0,6401.0,1.0,1.0,Who is brushing their teeth in the scene?,33.0,2.0,,,,,0.4117647058823529,0.3333333333333333,0.38461538461538464,7.0,2.0,5.0,2.73572185,0.21182515000000013,1.5169794942515582,0.28268098132398406,1.135224077964404,0.18398532222861294,0.5894078211706225,-0.6282956149372432,1.6562278704816096
Encode-Decode_Experiment-1-1,2385851,encoding,0.29707,0.12,0.1012,0.063285,25,3,False,0.16401,0.12087,6,22,31,28,0.9032,0.15682,1.0,6572.0,3.0,3.0,Where are the men?,1.0,3877.0,2.0,2.0,What are the men doing with the suitcases?,35.0,2.0,,,,,0.3125,0.14285714285714285,0.4444444444444444,5.0,1.0,4.0,-0.2549824210526316,0.5520524210526316,0.9541441460325883,0.18780433391233894,-0.7128177422405162,0.47949708792584017,-0.5691785355766237,-0.30490335484056297,-1.842771143019491
Encode-Decode_Experiment-1-1,2344622,encoding,0.018231,0.333333,0.330417,0.159986,12,4,False,0.169364,0.246224,9,10,24,19,0.7917,0.254556,1.0,3713.0,4.0,4.0,What is the cat resting its head on?,1.0,8759.0,2.0,2.0,Where is the cat located?,37.0,2.0,,,,,0.42857142857142855,0.4,0.4,6.0,2.0,4.0,0.5056617272727273,-0.4874307272727273,0.9052091807380732,0.23195546882456822,-0.9072378911812992,-0.4233685160680865,-1.9208626184484108,-0.24160345499200425,-0.9528492773316288
Encode-Decode_Experiment-1-1,2411268,encoding,2.743085,0.6,0.2838,0.115272,20,12,False,0.159698,0.437671,23,8,32,31,0.9688,0.234453,0.0,9988.0,1.0,4.0,Where is the fruit branch relative to the child?,1.0,7151.0,2.0,2.0,What is the child holding while picking fruit?,38.0,1.0,,,,,0.4444444444444444,0.3333333333333333,0.42857142857142855,8.0,2.0,6.0,1.8093183499999999,0.9337666500000004,1.225331761610032,0.2724488852275384,0.9926632005665854,0.8110432495224595,-0.37608080945208266,-0.35588377474100824,0.57237449053406
Encode-Decode_Experiment-1-1,2345035,encoding,-0.53349,0.25,0.305964,0.104902,28,7,False,0.234224,0.247613,15,21,41,36,0.878,0.23046,1.0,6065.0,3.0,3.0,What are the people doing with the football?,1.0,5287.0,2.0,2.0,Who runs toward the football in the scene?,42.0,2.0,,,,,0.38095238095238093,0.2,0.4666666666666667,8.0,1.0,7.0,0.3580512727272727,-0.8915412727272727,1.091743574781149,0.23065471618754577,-1.291924678157862,-0.7743674834779292,1.3617987256687865,0.5252309686496691,-1.1255473404053167
Encode-Decode_Experiment-1-1,2370664,encoding,4.605735,0.555556,0.141389,0.089924,18,10,False,0.144682,0.152652,28,12,40,40,1.0,0.147073,1.0,3329.0,1.0,1.0,Where are the people located in the scene?,1.0,3201.0,4.0,4.0,How many donuts are in the scene?,45.0,2.0,,,,,0.7,0.5714285714285714,0.6428571428571429,14.0,4.0,9.0,0.9945044545454546,3.6112305454545455,1.4735680741286477,0.24003967925959163,2.291393616414259,3.1366125105883973,1.1687009995442454,-0.5334167026689047,-0.38092371550319926
Encode-Decode_Experiment-1-1,2367132,encoding,2.469503,0.380952,0.154952,0.091516,21,8,False,0.120313,0.081787,21,15,37,36,0.973,0.103802,1.0,4443.0,4.0,4.0,In which hand(s) are the men holding the controllers?,1.0,3240.0,2.0,2.0,How many men are playing in the scene?,46.0,2.0,,,,,0.5,0.6,0.4444444444444444,11.0,3.0,8.0,3.199006428571429,-0.7295034285714288,1.3697642079851764,0.1554434927098504,0.8019084883939075,-0.6336260041481957,0.5894078211706225,-0.8215293771944049,2.1982514664224917
Encode-Decode_Experiment-10-1,2362704,encoding,1.880256,0.333333,0.182967,0.079971,30,10,False,0.248115,0.1542,17,17,35,34,0.9714,0.199018,1.0,4528.0,4.0,4.0,What are the bears doing with the pumpkins?,1.0,2438.0,2.0,2.0,How many bears are in the scene?,1.0,2.0,,,,,0.3333333333333333,0.2,0.2857142857142857,3.0,1.0,2.0,0.2529216818181818,1.627334318181818,1.0313779255756825,0.22938201361846952,0.3910567441870011,1.4134564706049388,0.2032123689215404,0.6894631144838735,-1.2485445683295646
Encode-Decode_Experiment-10-1,150472,encoding,-0.859561,0.15,0.24775,0.113721,20,3,False,0.087219,0.075484,5,23,31,28,0.9032,0.092926,1.0,3338.0,2.0,2.0,Where is the pizza slice located?,1.0,2893.0,4.0,4.0,How many women are in the scene?,2.0,2.0,,,,,0.5625,0.75,0.6,9.0,3.0,6.0,1.2262495,-2.0858105,1.585527302928803,0.19086885825778804,-1.5192772808614652,-1.8116758890543643,-0.5691785355766237,-1.2127970061798743,-0.10979169710947823
Encode-Decode_Experiment-10-1,2370664,encoding,-0.010006,0.214286,0.2155,0.121359,14,3,False,0.069476,0.126217,6,16,26,22,0.8462,0.122232,1.0,3833.0,1.0,1.0,Where are the people located in the scene?,0.0,2566.0,3.0,4.0,How many donuts are in the scene?,4.0,1.0,,,,,0.25,0.14285714285714285,0.21428571428571427,5.0,1.0,3.0,0.9945044545454546,-1.0045104545454546,1.4735680741286477,0.24003967925959163,-0.9269261046150042,-0.8724893132923821,-1.5346671661993287,-1.4225710299028809,-0.38092371550319926
Encode-Decode_Experiment-10-1,2379478,encoding,0.921081,0.35,0.2475,0.111282,20,7,False,0.319026,0.389875,18,12,31,30,0.9677,0.355879,1.0,2007.0,2.0,2.0,How many babies are visible in the scene?,1.0,5045.0,4.0,4.0,What is the position of the babies?,5.0,2.0,,,,,0.0,0.0,0.0,0.0,0.0,0.0,2.2821192,-1.3610381999999999,1.138984026211384,0.27100197178886043,-0.2777268418977128,-1.182159209104543,-0.5691785355766237,1.5278380114134862,1.1255317263547087
Encode-Decode_Experiment-10-1,2412687,encoding,0.594297,0.416667,0.326083,0.152421,12,5,False,0.123179,0.199847,12,4,28,16,0.5714,0.119551,1.0,3895.0,3.0,3.0,What is the human's body position?,1.0,3399.0,4.0,4.0,What is the dog biting onto in the scene?,6.0,2.0,,,,,0.0,0.0,0.0,0.0,0.0,0.0,1.451365105263158,-0.857068105263158,1.1312051634497753,0.283576893365701,-0.5055765829721853,-0.7444250671778531,-1.1484717139502467,-0.7876448958783853,0.15358415330927788
Encode-Decode_Experiment-10-1,2347025,encoding,0.508345,0.52381,0.460143,0.125243,21,11,False,0.125089,0.154398,28,6,34,34,1.0,0.130261,1.0,3994.0,1.0,1.0,Where is the baby in relation to the mother?,0.0,4496.0,3.0,2.0,Who is holding the umbrella in the scene?,7.0,1.0,,,,,0.5333333333333333,0.5,0.5,8.0,2.0,6.0,0.9484400454545454,-0.44009504545454536,1.216251282600781,0.17838999922358828,-0.5655065089931443,-0.3822540843198768,0.010114642796999388,-0.7650631236126498,-0.4348171490755773
Encode-Decode_Experiment-10-1,2356125,encoding,2.47984,0.5,0.243727,0.103342,22,11,False,0.235264,0.258587,25,10,37,35,0.9459,0.249079,1.0,2514.0,1.0,1.0,Where is the luggage being moved to?,1.0,3297.0,2.0,2.0,How many uniformed staff are moving the luggage?,8.0,2.0,,,,,0.45,0.42857142857142855,0.46153846153846156,9.0,3.0,6.0,0.7261805714285714,1.7536594285714284,0.9748230914120558,0.30641941378257537,0.8091159488983594,1.523178881473514,0.5894078211706225,0.5375268027629493,-0.6948514453065571
Encode-Decode_Experiment-10-1,2350974,encoding,2.945957,0.8,0.3145,0.164802,10,8,False,0.256598,,19,0,25,19,0.76,0.238674,1.0,2261.0,1.0,1.0,What is the child up against?,1.0,4270.0,4.0,4.0,Between which two objects is the child standing?,9.0,2.0,,,,,0.0,0.0,0.0,0.0,0.0,0.0,1.9283305714285712,1.0176264285714287,1.3162197290551871,0.3616449046192094,1.1341154524248782,0.8838814766285626,-1.7277648923238698,0.7897569229290217,0.7116138160012276
Encode-Decode_Experiment-10-1,2383555,encoding,0.816161,0.285714,0.199952,0.10508,21,6,False,0.302928,0.158923,10,16,32,26,0.8125,0.204814,1.0,3491.0,2.0,2.0,Who is holding the child in the boat?,1.0,4016.0,4.0,4.0,What is the woman at the back doing in the boat?,10.0,2.0,,,,,0.3333333333333333,0.2,0.45454545454545453,7.0,2.0,5.0,0.20344205263157894,0.6127189473684211,0.9789907763408688,0.25643641938735734,-0.3508821825310781,0.5321903134125265,-0.37608080945208266,1.3375126868408118,-1.3064336666894596
Encode-Decode_Experiment-10-1,2369373,encoding,2.615965,0.777778,0.427389,0.133942,18,14,False,0.261421,0.402052,24,1,26,25,0.9615,0.261874,1.0,4815.0,3.0,3.0,What is the appearance of the oven?,1.0,4239.0,3.0,3.0,What tool is the chef using?,11.0,2.0,,,,,0.4666666666666667,0.25,0.5,7.0,1.0,6.0,1.1567880952380951,1.459176904761905,1.1961233324682243,0.3247851291499645,0.9040289373058782,1.2673997068391973,-1.5346671661993287,0.8467788536293579,-0.19105863784005125
Encode-Decode_Experiment-10-1,2385550,encoding,0.843475,0.388889,0.287722,0.11994,18,7,False,0.276524,0.262302,14,14,32,28,0.875,0.277336,1.0,4548.0,3.0,3.0,Which side of the frame is the boy on? (from your perspective),1.0,3141.0,4.0,4.0,Where are the tangerines in the scene?,13.0,2.0,,,,,0.8333333333333334,0.75,0.8571428571428571,15.0,3.0,12.0,1.6704073636363637,-0.8269323636363637,1.32568686484865,0.20260647254233857,-0.3318375297093117,-0.7182500160387226,-0.37608080945208266,1.0253403753724997,0.4098544416762188
Encode-Decode_Experiment-10-1,2348899,encoding,4.18893,0.608696,0.217739,0.093331,23,14,False,0.201666,0.175792,22,6,28,28,1.0,0.196122,1.0,6102.0,1.0,1.0,Where is the woman located relative to the man? (from your perspective),1.0,3203.0,4.0,4.0,What is the woman doing?,14.0,2.0,,,,,0.5652173913043478,0.5,0.5882352941176471,13.0,3.0,10.0,3.1134014545454547,1.0755285454545453,1.3493713312617182,0.1380990616528036,2.000776844085915,0.9341736144245657,-1.1484717139502467,0.14030042339950596,2.0980972243040474
Encode-Decode_Experiment-10-1,2411268,encoding,0.473765,0.461538,0.388769,0.153598,13,6,False,0.243625,0.288897,16,9,26,25,0.9615,0.264995,1.0,6114.0,4.0,4.0,Where is the fruit branch relative to the child?,0.0,23799.0,1.0,2.0,What is the child holding while picking fruit?,15.0,1.0,,,,,0.5555555555555556,0.6666666666666666,0.35714285714285715,10.0,4.0,5.0,1.8093183499999999,-1.3355533499999999,1.225331761610032,0.2724488852275384,-0.5896173713559137,-1.1600237906275688,-1.5346671661993287,0.6363782152832705,0.57237449053406
Encode-Decode_Experiment-10-1,2387122,encoding,-0.136416,0.421053,0.439421,0.13465,19,8,False,0.179375,0.28172,13,11,24,24,1.0,0.226283,1.0,4071.0,3.0,3.0,Where is the polar bear located in the scene?,1.0,3613.0,1.0,1.0,What is the polar bear doing next to the enclosure edge?,17.0,2.0,,,,,0.4117647058823529,0.4,0.4166666666666667,7.0,2.0,5.0,0.9178346818181818,-1.0542506818181818,0.853152743114976,0.17096934150807871,-1.0150653212511433,-0.9156922650783109,-1.9208626184484108,-0.12324422873426748,-0.47062414551049625
Encode-Decode_Experiment-10-1,2349475,encoding,0.821209,0.153846,0.084154,0.084866,13,2,False,0.065656,0.09436,3,20,25,23,0.92,0.088054,1.0,2724.0,3.0,3.0,Which part of the blender is the woman holding?,1.0,3992.0,1.0,1.0,What is the man doing to power the blender?,18.0,2.0,,,,,0.75,0.6,0.6923076923076923,15.0,6.0,9.0,1.2590901363636364,-0.43788113636363646,1.198726478834509,0.15352989471574768,-0.3473624707552754,-0.3803311456250347,-1.7277648923238698,-1.4677345744343515,-0.07136952499726607
Encode-Decode_Experiment-10-1,2410309,encoding,0.661148,0.263158,0.192158,0.107389,19,5,False,0.287865,0.226602,11,15,26,26,1.0,0.252521,1.0,5188.0,2.0,2.0,What is the baby touching?,1.0,3019.0,4.0,4.0,How many laptops or electronic devices are visible?,20.0,2.0,,,,,0.7647058823529411,0.7142857142857143,0.6666666666666666,13.0,5.0,8.0,0.2172683181818182,0.44387968181818177,0.950905645616019,0.23490864783811527,-0.45896480564964337,0.3855413122098689,-1.5346671661993287,1.1594240817943344,-1.290257513805021
Encode-Decode_Experiment-10-1,2344622,encoding,-0.988013,0.25,0.386562,0.138219,16,4,False,0.153564,0.260008,8,17,31,25,0.8065,0.256139,1.0,3365.0,4.0,4.0,What is the cat resting its head on?,1.0,4642.0,2.0,2.0,Where is the cat located?,22.0,2.0,,,,,0.6428571428571429,0.6,0.6,9.0,3.0,6.0,0.5056617272727273,-1.4936747272727273,0.9052091807380732,0.23195546882456822,-1.608840279479813,-1.297363537814127,-0.5691785355766237,-0.428405550174527,-0.9528492773316288
Encode-Decode_Experiment-10-1,2397102,encoding,1.887584,0.5,0.27925,0.116948,20,10,False,0.116305,0.084022,27,5,34,32,0.9412,0.105677,1.0,2309.0,1.0,1.0,What are the couple doing with the cake?,1.0,3756.0,3.0,3.0,What is the man holding besides the cake knife?,23.0,2.0,,,,,0.0,0.0,0.0,0.0,0.0,0.0,2.2999614545454543,-0.4123774545454544,1.1910826134485393,0.23058448384401836,0.3961661831515579,-0.35817937036447545,0.010114642796999388,-0.8689156302001994,1.1464064185325504
Encode-Decode_Experiment-10-1,2409918,encoding,-0.195526,0.352941,0.379176,0.134178,17,6,False,0.170519,0.124303,16,10,35,26,0.7429,0.131688,1.0,5345.0,4.0,4.0,Where are the elephants in the scene?,1.0,3997.0,2.0,2.0,What is the elephant on the right (from your perspective) doing with its trunk?,24.0,2.0,,,,,0.6875,0.6666666666666666,0.6,11.0,4.0,6.0,2.1853706818181817,-2.380896681818182,1.4120558982527631,0.1397239954818782,-1.0562796958683587,-2.0679793839275145,0.2032123689215404,-0.2279479853758133,1.0123400032704581
Encode-Decode_Experiment-10-1,2374670,encoding,0.029488,0.714286,0.709929,0.14776,14,10,False,0.17199,0.258162,17,7,28,24,0.8571,0.215653,1.0,4770.0,1.0,1.0,What vehicle sprays water in the scene?,1.0,5684.0,3.0,3.0,Where is the man standing relative to the vehicle?,25.0,2.0,,,,,0.3684210526315789,0.42857142857142855,0.36363636363636365,7.0,3.0,4.0,1.371793590909091,-1.342305590909091,0.9602344343368724,0.1915646253149963,-0.8993889618112098,-1.1658885957247178,-1.1484717139502467,-0.21055647385597207,0.06048880686445075
Encode-Decode_Experiment-10-1,2360001,encoding,2.026076,0.285714,0.104571,0.089406,14,4,False,0.261531,0.219258,9,14,23,23,1.0,0.235799,1.0,4442.0,4.0,4.0,Where are the men standing?,1.0,3459.0,4.0,4.0,What are the workers doing to the clock?,27.0,2.0,,,,,0.0,0.0,0.0,0.0,0.0,0.0,1.2778753636363636,0.7482006363636367,1.2615430989913956,0.21375836987739374,0.4927295593905595,0.6498658689632316,-2.113960344572952,0.8480793745451856,-0.04939159413600724
Encode-Decode_Experiment-10-1,2347400,encoding,0.444285,0.4,0.3264,0.165659,10,4,False,0.138936,0.267598,21,11,37,32,0.8649,0.188872,1.0,2603.0,1.0,1.0,What are the men sitting on in the scene?,1.0,4788.0,3.0,3.0,What are the men doing with the wine?,29.0,2.0,,,,,0.45,0.375,0.5,9.0,3.0,6.0,0.8916799545454546,-0.4473949545454546,1.1157371185481555,0.1532970971675589,-0.6101722650069966,-0.38859457847900053,0.5894078211706225,-0.6013511861447768,-0.5012240833951781
Encode-Decode_Experiment-10-1,2408717,encoding,-0.059029,0.222222,0.228778,0.111057,18,4,False,0.157241,0.270898,12,12,28,24,0.8571,0.215179,1.0,3635.0,2.0,2.0,How many surfers are in the scene?,1.0,2977.0,3.0,3.0,What are the surfers doing with the surfboards?,30.0,2.0,,,,,0.8125,0.42857142857142855,1.0,13.0,3.0,9.0,0.5661411363636364,-0.6251701363636364,0.7503624691835715,0.17981171008099298,-0.961107330919517,-0.5430050633107989,-1.1484717139502467,-0.3849326828336324,-0.8820908961722178
Encode-Decode_Experiment-10-1,2394020,encoding,1.732468,0.8,0.4745,0.187882,10,8,False,0.252803,,15,0,19,15,0.7895,0.247894,1.0,3488.0,1.0,1.0,Where is the scene taking place?,1.0,3246.0,2.0,2.0,What are the riders wearing on their heads?,33.0,2.0,,,,,0.0,0.0,0.0,0.0,0.0,0.0,1.862782909090909,-0.13031490909090904,1.1176687580071856,0.2760044405049513,0.28801174340999197,-0.11318783695082144,-2.886351249071116,0.7448889513329664,0.6349257903489757
Encode-Decode_Experiment-10-1,2356991,encoding,2.220155,0.5,0.238,0.11801,16,8,False,0.128548,0.042288,20,10,31,30,0.9677,0.102377,1.0,5505.0,2.0,2.0,What is the current action of the gloved player on the base?,1.0,6324.0,1.0,1.0,How is the player on the left (from your perspective) reaching the base?,36.0,2.0,,,,,0.3333333333333333,0.2857142857142857,0.3,5.0,2.0,3.0,0.9049161818181819,1.3152388181818182,1.0809388187421525,0.24884533735636263,0.6280509028406444,1.1423791639980512,-0.5691785355766237,-0.7241676522685774,-0.4857382506373145
Encode-Decode_Experiment-10-1,2386442,encoding,-0.711952,0.545455,0.667818,0.171871,11,6,False,0.129535,0.134756,13,7,20,20,1.0,0.131362,1.0,4429.0,3.0,3.0,What is the person on the right wearing?,1.0,4695.0,1.0,1.0,Who is brushing their teeth in the scene?,37.0,2.0,,,,,0.23529411764705882,0.16666666666666666,0.23076923076923078,4.0,1.0,3.0,2.73572185,-3.44767385,1.5169794942515582,0.28268098132398406,-1.4163570876137486,-2.9945518000644036,-2.693253522946575,-0.7124984327783778,1.6562278704816096
Encode-Decode_Experiment-10-1,2345035,encoding,-0.090433,0.277778,0.289611,0.130852,18,5,False,0.17469,0.20841,12,14,40,26,0.65,0.167931,0.0,3175.0,2.0,3.0,What are the people doing with the football?,1.0,6623.0,2.0,2.0,Who runs toward the football in the scene?,41.0,1.0,,,,,0.5238095238095238,0.4,0.6,11.0,2.0,9.0,0.3580512727272727,-0.4484842727272727,1.091743574781149,0.23065471618754577,-0.9830037311983028,-0.38954072938077633,1.1687009995442454,-0.17863459683111046,-1.1255473404053167
Encode-Decode_Experiment-10-1,2371471,encoding,1.413843,0.4,0.1956,0.144571,10,4,False,0.148076,0.373248,31,14,45,45,1.0,0.218129,1.0,7062.0,2.0,2.0,What stunt is one motorcyclist performing?,1.0,4367.0,3.0,3.0,What is nearest to the motorcyclists?,42.0,2.0,,,,,0.4,0.6,0.3333333333333333,8.0,3.0,5.0,1.755834842105263,-0.341991842105263,1.278280203850134,0.22763081837414767,0.06585085502545114,-0.29704442210612714,2.1341896301669507,-0.4932897209569121,0.5098010214105495
Encode-Decode_Experiment-10-1,2385851,encoding,-0.674388,0.133333,0.215067,0.121196,15,2,False,0.367904,0.224178,6,13,30,19,0.6333,0.33537,1.0,5412.0,3.0,3.0,Where are the men?,1.0,2633.0,2.0,2.0,What are the men doing with the suitcases?,46.0,2.0,,,,,0.4375,0.2857142857142857,0.5555555555555556,7.0,2.0,5.0,-0.2549824210526316,-0.4194055789473684,0.9541441460325883,0.18780433391233894,-1.390165634930259,-0.3642838000450348,-0.7622762617011647,2.105718568902813,-1.842771143019491
Encode-Decode_Experiment-10-1,2367132,encoding,2.837132,0.5,0.165167,0.118018,12,6,False,0.105676,0.034278,11,11,22,22,1.0,0.069977,1.0,2315.0,2.0,2.0,How many men are playing in the scene?,0.0,7330.0,1.0,4.0,In which hand(s) are the men holding the controllers?,55.0,1.0,,,,,0.5,0.6,0.4444444444444444,11.0,3.0,8.0,3.199006428571429,-0.3618744285714288,1.3697642079851764,0.1554434927098504,1.0582373553563882,-0.3143138732440859,-2.307058070697493,-0.9945814194214041,2.1982514664224917
Encode-Decode_Experiment-11-1,2370664,encoding,0.697606,0.153846,0.108385,0.065168,26,4,False,0.15941,0.163214,9,25,34,34,1.0,0.162207,1.0,2788.0,4.0,4.0,How many donuts are in the scene?,1.0,3789.0,1.0,1.0,Where are the people located in the scene?,1.0,2.0,,,,,0.35,0.2857142857142857,0.2857142857142857,7.0,2.0,4.0,0.9945044545454546,-0.2968984545454546,1.4735680741286477,0.24003967925959163,-0.4335445101024528,-0.2578775836047921,0.010114642796999388,-0.3592887749569936,-0.38092371550319926
Encode-Decode_Experiment-11-1,2356125,encoding,1.642844,0.4,0.24756,0.09279,25,10,False,0.290167,0.261904,18,12,37,30,0.8108,0.29884,0.0,2916.0,4.0,2.0,How many uniformed staff are moving the luggage?,1.0,3095.0,1.0,1.0,Where is the luggage being moved to?,2.0,1.0,,,,,0.45,0.42857142857142855,0.46153846153846156,9.0,3.0,6.0,0.7261805714285714,0.9166634285714286,0.9748230914120558,0.30641941378257537,0.22552151991661865,0.7961878760897813,0.5894078211706225,1.1866404376873834,-0.6948514453065571
Encode-Decode_Experiment-11-1,2344622,encoding,-0.812151,0.16,0.23684,0.094613,25,4,False,0.21429,0.20509,8,22,36,30,0.8333,0.229643,1.0,3551.0,4.0,4.0,What is the cat resting its head on?,1.0,4489.0,2.0,2.0,Where is the cat located?,3.0,2.0,,,,,0.5,0.4,0.5,7.0,2.0,5.0,0.5056617272727273,-1.3178127272727274,0.9052091807380732,0.23195546882456822,-1.4862207168181192,-1.144614788490601,0.39631009504608145,0.28955293286685846,-0.9528492773316288
Encode-Decode_Experiment-11-1,2360001,encoding,1.051911,0.214286,0.137321,0.073166,28,6,False,0.150861,0.28008,13,22,35,35,1.0,0.232084,1.0,3527.0,4.0,4.0,What are the workers doing to the clock?,0.0,4447.0,2.0,4.0,Where are the men standing?,5.0,1.0,,,,,0.45,0.42857142857142855,0.5454545454545454,9.0,3.0,6.0,1.2778753636363636,-0.22596436363636352,1.2615430989913956,0.21375836987739374,-0.1865057857114453,-0.19626624249207328,0.2032123689215404,-0.4603628959516385,-0.04939159413600724
Encode-Decode_Experiment-11-1,150472,encoding,-0.525739,0.217391,0.272826,0.105442,23,5,False,0.091957,0.093667,11,16,29,27,0.931,0.10335,1.0,4609.0,2.0,2.0,Where is the pizza slice located?,1.0,2436.0,4.0,4.0,How many women are in the scene?,6.0,2.0,,,,,0.4375,0.25,0.6,7.0,1.0,6.0,1.2262495,-1.7519885,1.585527302928803,0.19086885825778804,-1.286520302964865,-1.5217275602699871,-0.9553739878257057,-1.1567800234599506,-0.10979169710947823
Encode-Decode_Experiment-11-1,2362704,encoding,0.174253,0.153846,0.141192,0.072618,26,4,False,0.206413,0.164435,7,23,30,30,1.0,0.17423,1.0,3273.0,4.0,4.0,What are the bears doing with the pumpkins?,1.0,2147.0,2.0,2.0,How many bears are in the scene?,7.0,2.0,,,,,0.5555555555555556,0.2,0.5714285714285714,5.0,1.0,4.0,0.2529216818181818,-0.07866868181818182,1.0313779255756825,0.22938201361846952,-0.7984517440568337,-0.0683293875803624,-0.7622762617011647,0.19642381237617917,-1.2485445683295646
Encode-Decode_Experiment-11-1,2367132,encoding,3.730474,0.35,0.0866,0.070608,20,7,False,0.089679,0.110717,19,14,34,33,0.9706,0.098292,1.0,5518.0,4.0,4.0,In which hand(s) are the men holding the controllers?,1.0,2338.0,2.0,2.0,How many men are playing in the scene?,8.0,2.0,,,,,0.5454545454545454,0.6,0.5,12.0,3.0,9.0,3.199006428571429,0.5314675714285713,1.3697642079851764,0.1554434927098504,1.6811189633633632,0.4616176709108621,0.010114642796999388,-1.1837126293350004,2.1982514664224917
Encode-Decode_Experiment-11-1,2386442,encoding,3.655787,0.703704,0.312148,0.107106,27,19,False,0.113722,0.105171,33,4,37,37,1.0,0.112798,0.0,3200.0,4.0,3.0,What is the person on the right wearing?,1.0,4148.0,1.0,1.0,Who is brushing their teeth in the scene?,9.0,1.0,,,,,0.47058823529411764,0.16666666666666666,0.5384615384615384,8.0,1.0,7.0,2.73572185,0.9200651500000001,1.5169794942515582,0.28268098132398406,1.62904354470263,0.7991425149188708,0.5894078211706225,-0.8994542258873168,1.6562278704816096
Encode-Decode_Experiment-11-1,2347400,encoding,1.436542,0.318182,0.179818,0.096317,22,7,False,0.235781,0.188421,14,14,38,28,0.7368,0.237335,1.0,3737.0,3.0,3.0,What are the men doing with the wine?,1.0,2667.0,1.0,1.0,What are the men sitting on in the scene?,11.0,2.0,,,,,0.4,0.125,0.5833333333333334,8.0,1.0,7.0,0.8916799545454546,0.5448620454545454,1.1157371185481555,0.1532970971675589,0.08167770478752473,0.47325173145443605,0.7825055472951635,0.5436392510673393,-0.5012240833951781
Encode-Decode_Experiment-11-1,2356991,encoding,0.951975,0.241379,0.166828,0.078313,29,7,False,0.12271,0.17492,14,20,37,34,0.9189,0.14964,1.0,6140.0,1.0,1.0,How is the player on the left (from your perspective) reaching the base?,1.0,6431.0,2.0,2.0,What is the current action of the gloved player on the base?,12.0,2.0,,,,,0.4,0.2857142857142857,0.4,6.0,2.0,4.0,0.9049161818181819,0.04705881818181812,1.0809388187421525,0.24884533735636263,-0.2561860384900957,0.04087395583989676,0.5894078211706225,-0.7931898441467778,-0.4857382506373145
Encode-Decode_Experiment-11-1,2371471,encoding,1.885618,0.44,0.25408,0.098599,25,11,False,0.261174,0.606556,21,10,31,31,1.0,0.372587,0.0,4957.0,1.0,3.0,What is nearest to the motorcyclists?,1.0,6247.0,2.0,2.0,What stunt is one motorcyclist performing?,14.0,1.0,,,,,0.35,0.2,0.3333333333333333,7.0,1.0,5.0,1.755834842105263,0.12978315789473704,1.278280203850134,0.22763081837414767,0.39479539207564107,0.11272597293149623,-0.5691785355766237,0.8438585930274539,0.5098010214105495
Encode-Decode_Experiment-11-1,2408717,encoding,-0.470886,0.16,0.19976,0.084437,25,4,False,0.350207,0.289281,8,19,34,27,0.7941,0.298228,1.0,3767.0,3.0,3.0,What are the surfers doing with the surfboards?,1.0,2533.0,2.0,2.0,How many surfers are in the scene?,16.0,2.0,,,,,0.625,0.14285714285714285,0.8888888888888888,10.0,1.0,8.0,0.5661411363636364,-1.0370271363636365,0.7503624691835715,0.17981171008099298,-1.2482741163487576,-0.900732381606619,0.010114642796999388,1.8964883993809705,-0.8820908961722178
Encode-Decode_Experiment-11-1,2410309,encoding,-0.011677,0.136364,0.137364,0.085637,22,3,False,0.308537,0.292408,7,24,34,31,0.9118,0.315882,1.0,3041.0,4.0,4.0,How many laptops or electronic devices are visible?,1.0,3278.0,2.0,2.0,What is the baby touching?,17.0,2.0,,,,,0.5294117647058824,0.42857142857142855,0.5,9.0,3.0,6.0,0.2172683181818182,-0.22894531818181818,0.950905645616019,0.23490864783811527,-0.9280912073046569,-0.19885541513089508,0.010114642796999388,1.4038274306306078,-1.290257513805021
Encode-Decode_Experiment-11-1,2349475,encoding,-0.11116,0.173913,0.184609,0.096219,23,4,False,0.062321,0.052886,7,20,35,27,0.7714,0.078727,1.0,4349.0,3.0,3.0,Which part of the blender is the woman holding?,1.0,3378.0,1.0,1.0,What is the man doing to power the blender?,19.0,2.0,,,,,0.6,0.5,0.5384615384615384,12.0,5.0,7.0,1.2590901363636364,-1.3702501363636364,1.198726478834509,0.15352989471574768,-0.9974556063918575,-1.1901604359664768,0.2032123689215404,-1.507164004018764,-0.07136952499726607
Encode-Decode_Experiment-11-1,2385851,encoding,-1.019643,0.086957,0.172261,0.083661,23,2,False,0.158952,0.177844,5,21,32,26,0.8125,0.207879,1.0,3774.0,3.0,3.0,Where are the men?,1.0,2739.0,2.0,2.0,What are the men doing with the suitcases?,20.0,2.0,,,,,0.4375,0.2857142857142857,0.5555555555555556,7.0,2.0,5.0,-0.2549824210526316,-0.7646605789473685,0.9541441460325883,0.18780433391233894,-1.6308942579799401,-0.664162508621612,-0.37608080945208266,-0.36470367113380325,-1.842771143019491
Encode-Decode_Experiment-11-1,2387122,encoding,1.141207,0.47619,0.339095,0.120132,21,10,False,0.139046,0.109506,20,5,28,25,0.8929,0.136233,1.0,5174.0,3.0,3.0,Where is the polar bear located in the scene?,1.0,4770.0,1.0,1.0,What is the polar bear doing next to the enclosure edge?,21.0,2.0,,,,,0.6470588235294118,0.6,0.6666666666666666,11.0,3.0,8.0,0.9178346818181818,0.22337231818181824,0.853152743114976,0.17096934150807871,-0.12424425981364703,0.194014865268048,-1.1484717139502467,-0.600050665228949,-0.47062414551049625
Encode-Decode_Experiment-11-1,2345035,encoding,0.405641,0.16129,0.131161,0.074275,31,5,False,0.213296,0.22694,7,27,37,34,0.9189,0.213018,1.0,3135.0,2.0,2.0,Who runs toward the football in the scene?,1.0,4557.0,3.0,3.0,What are the people doing with the football?,22.0,2.0,,,,,0.42857142857142855,0.2,0.4,9.0,1.0,6.0,0.3580512727272727,0.047589727272727256,1.091743574781149,0.23065471618754577,-0.6371167463588435,0.041335088430455615,0.5894078211706225,0.27780095295474283,-1.1255473404053167
Encode-Decode_Experiment-11-1,2397102,encoding,0.749626,0.3,0.22015,0.10652,20,6,False,0.173613,0.169396,16,12,30,28,0.9333,0.165927,1.0,3272.0,1.0,1.0,What are the couple doing with the cake?,1.0,4218.0,3.0,3.0,What is the man holding besides the cake knife?,23.0,2.0,,,,,0.47619047619047616,0.4,0.3684210526315789,10.0,2.0,7.0,2.2999614545454543,-1.5503354545454542,1.1910826134485393,0.23058448384401836,-0.39727362924324894,-1.3465774397751558,-0.7622762617011647,-0.19136787888880546,1.1464064185325504
Encode-Decode_Experiment-11-1,2394020,encoding,1.411591,0.75,0.541625,0.147617,16,12,False,0.284873,,20,0,25,20,0.8,0.280133,1.0,4892.0,2.0,2.0,What are the riders wearing on their heads?,1.0,2807.0,1.0,1.0,Where is the scene taking place?,27.0,2.0,,,,,0.5,0.3333333333333333,0.4444444444444444,6.0,1.0,4.0,1.862782909090909,-0.4511919090909089,1.1176687580071856,0.2760044405049513,0.06428065080217309,-0.3918925055926261,-1.7277648923238698,1.1240499128838213,0.6349257903489757
Encode-Decode_Experiment-11-1,2374670,encoding,1.722857,0.44,0.25392,0.108007,25,11,False,0.236601,0.256587,19,14,35,33,0.9429,0.242823,1.0,4330.0,1.0,1.0,What vehicle sprays water in the scene?,0.0,6666.0,4.0,3.0,Where is the man standing relative to the vehicle?,29.0,1.0,,,,,0.3684210526315789,0.42857142857142855,0.36363636363636365,7.0,3.0,4.0,1.371793590909091,0.35106340909090905,0.9602344343368724,0.1915646253149963,0.28131048551038024,0.3049237281043645,0.2032123689215404,0.5533340433489641,0.06048880686445075
Encode-Decode_Experiment-11-1,2385550,encoding,1.638093,0.285714,0.159679,0.076941,28,8,False,0.232533,0.234815,16,16,34,32,0.9412,0.232809,1.0,3325.0,4.0,4.0,Where are the tangerines in the scene?,1.0,5641.0,3.0,3.0,Which side of the frame is the boy on? (from your perspective),30.0,2.0,,,,,0.3333333333333333,0.0,0.42857142857142855,6.0,0.0,6.0,1.6704073636363637,-0.03231436363636364,1.32568686484865,0.20260647254233857,0.2222088910246141,-0.028067340475146307,0.010114642796999388,0.5052384152981726,0.4098544416762188
Encode-Decode_Experiment-11-1,2412687,encoding,0.152419,0.357143,0.334429,0.149025,14,5,False,0.098331,0.218764,12,12,29,24,0.8276,0.141215,1.0,3151.0,4.0,4.0,What is the dog biting onto in the scene?,1.0,5574.0,3.0,3.0,What is the human's body position?,34.0,2.0,,,,,0.4666666666666667,0.5,0.5555555555555556,7.0,2.0,5.0,1.451365105263158,-1.298946105263158,1.1312051634497753,0.283576893365701,-0.8136754736354544,-1.1282277752875132,-0.9553739878257057,-1.0814207478464442,0.15358415330927788
Encode-Decode_Experiment-11-1,2409918,encoding,0.354383,0.36,0.32392,0.101811,25,9,False,0.147662,0.187722,21,12,35,33,0.9429,0.172968,1.0,3977.0,4.0,4.0,Where are the elephants in the scene?,1.0,4189.0,2.0,2.0,What is the elephant on the right (from your perspective) doing with its trunk?,35.0,2.0,,,,,0.6875,0.6666666666666666,0.7,11.0,4.0,7.0,2.1853706818181817,-1.8309876818181818,1.4120558982527631,0.1397239954818782,-0.6728563236575953,-1.5903440107840785,0.2032123689215404,-0.4981844087673912,1.0123400032704581
Encode-Decode_Experiment-11-1,2347025,encoding,0.686526,0.75,0.6718,0.113907,20,15,False,0.137319,0.055183,30,1,32,31,0.9688,0.13769,1.0,4062.0,1.0,1.0,Where is the baby in relation to the mother?,0.0,4582.0,3.0,2.0,Who is holding the umbrella in the scene?,43.0,1.0,,,,,0.6,0.5,0.5833333333333334,9.0,2.0,7.0,0.9484400454545454,-0.26191404545454544,1.216251282600781,0.17838999922358828,-0.4412700264407838,-0.22749111731611707,-0.37608080945208266,-0.6204688436074439,-0.4348171490755773
Encode-Decode_Experiment-11-1,2348899,encoding,3.835123,0.52,0.19808,0.08394,25,13,False,0.194244,0.172049,21,11,32,32,1.0,0.186614,1.0,3377.0,4.0,4.0,What is the woman doing?,1.0,9406.0,1.0,1.0,Where is the woman located relative to the man? (from your perspective),46.0,2.0,,,,,0.6086956521739131,0.5,0.6470588235294118,14.0,3.0,11.0,3.1134014545454547,0.7217215454545451,1.3493713312617182,0.1380990616528036,1.7540853495808724,0.6268668810091103,-0.37608080945208266,0.05255073033338649,2.0980972243040474
Encode-Decode_Experiment-11-1,2379478,encoding,-0.019075,0.285714,0.288429,0.142295,14,4,False,0.4593,0.376932,10,7,18,17,0.9444,0.444714,1.0,2193.0,2.0,2.0,How many babies are visible in the scene?,1.0,5005.0,4.0,4.0,What is the position of the babies?,47.0,2.0,,,,,0.5625,0.8,0.5,9.0,4.0,5.0,2.2821192,-2.3011942,1.138984026211384,0.27100197178886043,-0.9332494536829036,-1.9987520669647345,-3.079448975195657,3.186285929111792,1.1255317263547087
Encode-Decode_Experiment-12-1,2348899,encoding,1.566717,0.75,0.496167,0.162016,12,9,False,0.211917,,26,0,26,26,1.0,0.211917,1.0,4705.0,4.0,4.0,What is the woman doing?,1.0,6461.0,1.0,1.0,Where is the woman located relative to the man? (from your perspective),1.0,2.0,,,,,0.43478260869565216,0.16666666666666666,0.5294117647058824,10.0,1.0,9.0,3.1134014545454547,-1.5466844545454548,1.3493713312617182,0.1380990616528036,0.17244206303140888,-1.3434062846434043,-1.5346671661993287,0.26149714983723,2.0980972243040474
Encode-Decode_Experiment-12-1,2362704,encoding,0.488559,0.166667,0.130375,0.074283,24,4,False,0.241483,0.322712,9,20,30,29,0.9667,0.298547,1.0,4769.0,4.0,4.0,What are the bears doing with the pumpkins?,1.0,1435.0,2.0,2.0,How many bears are in the scene?,3.0,2.0,,,,,0.5555555555555556,0.2,0.5714285714285714,5.0,1.0,4.0,0.2529216818181818,0.2356373181818182,1.0313779255756825,0.22938201361846952,-0.5793022730969545,0.20466789668161686,-0.7622762617011647,0.6110535261768804,-1.2485445683295646
Encode-Decode_Experiment-12-1,2412687,encoding,1.598289,0.6,0.370667,0.143487,15,9,False,0.115768,0.140906,17,7,31,24,0.7742,0.118383,1.0,4546.0,4.0,4.0,What is the dog biting onto in the scene?,1.0,3800.0,3.0,3.0,What is the human's body position?,4.0,2.0,,,,,0.06666666666666667,0.0,0.1111111111111111,1.0,0.0,1.0,1.451365105263158,0.1469238947368421,1.1312051634497753,0.283576893365701,0.19445560110305035,0.12761393118919392,-0.5691785355766237,-0.8752645368529219,0.15358415330927788
Encode-Decode_Experiment-12-1,2379478,encoding,2.782982,0.722222,0.341778,0.136704,18,13,False,0.388866,0.249042,29,4,33,33,1.0,0.371917,1.0,2555.0,2.0,2.0,How many babies are visible in the scene?,1.0,4318.0,4.0,4.0,What is the position of the babies?,5.0,2.0,,,,,0.4375,0.4,0.5,7.0,2.0,5.0,2.2821192,0.5008628000000002,1.138984026211384,0.27100197178886043,1.02048133462348,0.4350352337780726,-0.18298308332754162,2.3535505637899043,1.1255317263547087
Encode-Decode_Experiment-12-1,2374670,encoding,0.249412,0.318182,0.289955,0.113175,22,7,False,0.15559,0.127896,18,14,33,32,0.9697,0.139603,0.0,5477.0,4.0,1.0,What vehicle sprays water in the scene?,1.0,3700.0,3.0,3.0,Where is the man standing relative to the vehicle?,6.0,1.0,,,,,0.3684210526315789,0.2857142857142857,0.45454545454545453,7.0,2.0,5.0,1.371793590909091,-1.122381590909091,0.9602344343368724,0.1915646253149963,-0.7460472239780774,-0.9748688419050913,-0.18298308332754162,-0.4044523194884642,0.06048880686445075
Encode-Decode_Experiment-12-1,2347400,encoding,1.382448,0.263158,0.141895,0.087716,19,5,False,0.173668,0.287058,14,13,30,27,0.9,0.223652,1.0,7922.0,3.0,3.0,What are the men doing with the wine?,1.0,2618.0,1.0,1.0,What are the men sitting on in the scene?,7.0,2.0,,,,,0.5,0.375,0.5833333333333334,10.0,3.0,7.0,0.8916799545454546,0.49076804545454533,1.1157371185481555,0.1532970971675589,0.043960729985568284,0.4262672160622147,-0.7622762617011647,-0.19071761843089163,-0.5012240833951781
Encode-Decode_Experiment-12-1,2408717,encoding,0.357366,0.217391,0.185,0.090639,23,5,False,0.307717,0.204369,11,19,32,30,0.9375,0.248498,1.0,5172.0,2.0,2.0,How many surfers are in the scene?,1.0,4703.0,3.0,3.0,What are the surfers doing with the surfboards?,8.0,2.0,,,,,0.4375,0.2857142857142857,0.4444444444444444,7.0,2.0,4.0,0.5661411363636364,-0.20877513636363637,0.7503624691835715,0.17981171008099298,-0.670776430585642,-0.18133616682054152,-0.37608080945208266,1.3941326383489834,-0.8820908961722178
Encode-Decode_Experiment-12-1,2410309,encoding,0.27344,0.3,0.26725,0.11977,20,6,False,0.422645,0.22628,14,14,29,28,0.9655,0.320055,1.0,3377.0,4.0,4.0,How many laptops or electronic devices are visible?,1.0,4521.0,2.0,2.0,What is the baby touching?,12.0,2.0,,,,,0.47058823529411764,0.42857142857142855,0.4166666666666667,8.0,3.0,5.0,0.2172683181818182,0.05617168181818183,0.950905645616019,0.23490864783811527,-0.7292937306046643,0.048789130938612785,-0.9553739878257057,2.7529168912057553,-1.290257513805021
Encode-Decode_Experiment-12-1,2371471,encoding,3.127066,0.64,0.30496,0.107142,25,16,False,0.410398,0.467525,25,6,31,31,1.0,0.421455,1.0,14130.0,2.0,2.0,What stunt is one motorcyclist performing?,0.0,7842.0,1.0,3.0,What is nearest to the motorcyclists?,13.0,1.0,,,,,0.35,0.2,0.3333333333333333,7.0,1.0,5.0,1.755834842105263,1.3712311578947372,1.278280203850134,0.22763081837414767,1.260393479367007,1.191012523466534,-0.5691785355766237,2.6081216216044667,0.5098010214105495
Encode-Decode_Experiment-12-1,2356991,encoding,-0.476864,0.166667,0.2155,0.102405,24,4,False,0.14828,0.172787,7,23,30,30,1.0,0.167069,1.0,6140.0,1.0,1.0,How is the player on the left (from your perspective) reaching the base?,0.0,10852.0,1.0,2.0,What is the current action of the gloved player on the base?,14.0,1.0,,,,,0.4,0.2857142857142857,0.4,6.0,2.0,4.0,0.9049161818181819,-1.3817801818181819,1.0809388187421525,0.24884533735636263,-1.252442269477868,-1.2001751066902557,-0.7622762617011647,-0.49087784580392274,-0.4857382506373145
Encode-Decode_Experiment-12-1,2349475,encoding,0.903512,0.285714,0.19619,0.099084,21,6,False,0.06314,0.06219,12,15,30,27,0.9,0.073385,1.0,4695.0,1.0,1.0,What is the man doing to power the blender?,1.0,4553.0,3.0,3.0,Which part of the blender is the woman holding?,15.0,2.0,,,,,0.55,0.3,0.6153846153846154,11.0,3.0,8.0,1.2590901363636364,-0.35557813636363644,1.198726478834509,0.15352989471574768,-0.28997680548508986,-0.3088450922674352,-0.7622762617011647,-1.497481034654556,-0.07136952499726607
Encode-Decode_Experiment-12-1,2370664,encoding,1.792974,0.36,0.20424,0.086872,25,9,False,0.158935,0.098141,17,15,32,32,1.0,0.130438,1.0,3163.0,1.0,1.0,Where are the people located in the scene?,1.0,2855.0,4.0,4.0,How many donuts are in the scene?,16.0,2.0,,,,,0.35,0.2857142857142857,0.2857142857142857,7.0,2.0,4.0,0.9945044545454546,0.7984695454545455,1.4735680741286477,0.24003967925959163,0.3301994773059357,0.6935280187937485,-0.37608080945208266,-0.3649046607298859,-0.38092371550319926
Encode-Decode_Experiment-12-1,2394020,encoding,3.928929,0.782609,0.335478,0.113805,23,18,False,0.297217,0.201905,26,2,31,28,0.9032,0.305749,1.0,2564.0,2.0,2.0,What are the riders wearing on their heads?,1.0,6988.0,1.0,1.0,Where is the scene taking place?,17.0,2.0,,,,,0.5833333333333334,0.3333333333333333,0.6666666666666666,7.0,1.0,6.0,1.862782909090909,2.066146090909091,1.1176687580071856,0.2760044405049513,1.8194914674178289,1.7945959406014722,-0.5691785355766237,1.2699920054745217,0.6349257903489757
Encode-Decode_Experiment-12-1,2345035,encoding,-0.513364,0.315789,0.383895,0.132665,19,6,False,0.180412,0.292083,14,13,34,27,0.7941,0.226322,1.0,3588.0,2.0,2.0,Who runs toward the football in the scene?,0.0,8018.0,2.0,3.0,What are the people doing with the football?,18.0,1.0,,,,,0.38095238095238093,0.2,0.4666666666666667,8.0,1.0,7.0,0.3580512727272727,-0.8714152727272728,1.091743574781149,0.23065471618754577,-1.2778918494732725,-0.756886610242749,0.010114642796999388,-0.11098386337323754,-1.1255473404053167
Encode-Decode_Experiment-12-1,2369373,encoding,2.49022,0.647059,0.327706,0.128243,17,11,False,0.229375,0.075314,21,2,24,23,0.9583,0.21144,1.0,2801.0,3.0,3.0,What tool is the chef using?,1.0,4471.0,3.0,3.0,What is the appearance of the oven?,20.0,2.0,,,,,0.4,0.25,0.4166666666666667,6.0,1.0,5.0,1.1567880952380951,1.3334319047619048,1.1961233324682243,0.3247851291499645,0.8163533910997922,1.1581811634148826,-1.9208626184484108,0.46790164209650126,-0.19105863784005125
Encode-Decode_Experiment-12-1,2360001,encoding,1.04886,0.333333,0.215133,0.112694,15,5,False,0.338907,0.117954,9,14,23,23,1.0,0.204414,1.0,4385.0,4.0,4.0,What are the workers doing to the clock?,1.0,5966.0,4.0,4.0,Where are the men standing?,21.0,2.0,,,,,0.4,0.2857142857142857,0.5454545454545454,8.0,2.0,6.0,1.2778753636363636,-0.22901536363636366,1.2615430989913956,0.21375836987739374,-0.18863309169955442,-0.19891625462764603,-2.113960344572952,1.762889432573217,-0.04939159413600724
Encode-Decode_Experiment-12-1,2344622,encoding,1.079607,0.277778,0.175444,0.094788,18,5,False,0.195878,0.182635,17,15,32,32,1.0,0.18967,1.0,3553.0,4.0,4.0,What is the cat resting its head on?,1.0,2338.0,2.0,2.0,Where is the cat located?,22.0,2.0,,,,,0.42857142857142855,0.4,0.4,6.0,2.0,4.0,0.5056617272727273,0.5739452727272727,0.9052091807380732,0.23195546882456822,-0.16719478386068584,0.4985125984535658,-0.37608080945208266,0.07186937739213597,-0.9528492773316288
Encode-Decode_Experiment-12-1,2385550,encoding,0.806193,0.230769,0.163308,0.083679,26,6,False,0.187256,0.225803,11,21,32,32,1.0,0.212552,1.0,4594.0,3.0,3.0,Which side of the frame is the boy on? (from your perspective),1.0,2877.0,4.0,4.0,Where are the tangerines in the scene?,23.0,2.0,,,,,0.3888888888888889,0.25,0.42857142857142855,7.0,1.0,6.0,1.6704073636363637,-0.8642143636363636,1.32568686484865,0.20260647254233857,-0.357832358240508,-0.7506321046779948,-0.37608080945208266,-0.030067816573921696,0.4098544416762188
Encode-Decode_Experiment-12-1,2409918,encoding,2.437274,0.8125,0.475812,0.138141,16,13,False,0.105191,,29,0,31,29,0.9355,0.116702,0.0,7279.0,3.0,2.0,What is the elephant on the right (from your perspective) doing with its trunk?,1.0,3754.0,4.0,4.0,Where are the elephants in the scene?,25.0,1.0,,,,,0.5625,0.3333333333333333,0.7,9.0,2.0,7.0,2.1853706818181817,0.2519033181818182,1.4120558982527631,0.1397239954818782,0.7794368578823488,0.21879608330804257,-0.5691785355766237,-1.0003155343684627,1.0123400032704581
Encode-Decode_Experiment-12-1,2347025,encoding,0.835642,0.722222,0.614611,0.128777,18,13,False,0.083014,0.033475,26,1,28,27,0.9643,0.080254,1.0,3188.0,1.0,1.0,Where is the baby in relation to the mother?,1.0,4422.0,2.0,2.0,Who is holding the umbrella in the scene?,26.0,2.0,,,,,0.4666666666666667,0.5,0.4166666666666667,7.0,2.0,5.0,0.9484400454545454,-0.11279804545454541,1.216251282600781,0.17838999922358828,-0.3372990793012022,-0.09797318561895159,-1.1484717139502467,-1.2625123739167419,-0.4348171490755773
Encode-Decode_Experiment-12-1,2383555,encoding,0.882377,0.375,0.277958,0.109978,24,9,False,0.206303,0.170577,16,15,32,31,0.9688,0.185409,0.0,2500.0,3.0,2.0,Who is holding the child in the boat?,1.0,5224.0,4.0,4.0,What is the woman at the back doing in the boat?,27.0,1.0,,,,,0.2857142857142857,0.2,0.36363636363636365,6.0,2.0,4.0,0.20344205263157894,0.678934947368421,0.9789907763408688,0.25643641938735734,-0.30471315817557953,0.5897036544708938,-0.37608080945208266,0.19512329146035115,-1.3064336666894596
Encode-Decode_Experiment-12-1,2387122,encoding,0.35523,0.470588,0.420118,0.142078,17,8,False,0.131836,0.071836,19,6,26,25,0.9615,0.122484,1.0,3195.0,3.0,3.0,Where is the polar bear located in the scene?,1.0,6460.0,1.0,1.0,What is the polar bear doing next to the enclosure edge?,32.0,2.0,,,,,0.47058823529411764,0.2,0.5833333333333334,8.0,1.0,7.0,0.9178346818181818,-0.5626046818181818,0.853152743114976,0.17096934150807871,-0.6722657539519485,-0.4886624825788835,-1.5346671661993287,-0.6852938998027459,-0.47062414551049625
Encode-Decode_Experiment-12-1,2411268,encoding,3.118175,0.777778,0.384611,0.126089,18,14,False,0.151452,0.139584,24,2,28,26,0.9286,0.14773,1.0,7147.0,2.0,2.0,What is the child holding while picking fruit?,1.0,5309.0,4.0,4.0,Where is the fruit branch relative to the child?,35.0,2.0,,,,,0.6111111111111112,0.3333333333333333,0.6428571428571429,11.0,2.0,9.0,1.8093183499999999,1.30885665,1.225331761610032,0.2724488852275384,1.2541942405796334,1.136835793584061,-1.1484717139502467,-0.4533755517584187,0.57237449053406
Encode-Decode_Experiment-12-1,2397102,encoding,1.238677,0.428571,0.28519,0.115753,21,9,False,0.085259,0.18614,19,10,31,29,0.9355,0.118279,1.0,2848.0,3.0,3.0,What is the man holding besides the cake knife?,1.0,2213.0,1.0,1.0,What are the couple doing with the cake?,46.0,2.0,,,,,0.38095238095238093,0.4,0.3157894736842105,8.0,2.0,6.0,2.2999614545454543,-1.0612844545454543,1.1910826134485393,0.23058448384401836,-0.05628342249441225,-0.9218016007342047,-0.5691785355766237,-1.2359699243164404,1.1464064185325504
Encode-Decode_Experiment-12-1,2385851,encoding,-1.348958,0.0,0.113294,0.083986,17,0,False,,0.143996,0,21,22,21,0.9545,0.147182,1.0,2616.0,2.0,2.0,What are the men doing with the suitcases?,0.0,5927.0,4.0,3.0,Where are the men?,48.0,1.0,,,,,0.8125,0.5714285714285714,1.0,13.0,4.0,9.0,-0.2549824210526316,-1.0939755789473686,0.9541441460325883,0.18780433391233894,-1.860508735683683,-0.9501961849330209,-2.307058070697493,,-1.842771143019491
Encode-Decode_Experiment-12-1,150472,encoding,0.958904,0.458333,0.354917,0.107849,24,11,False,0.09993,0.108113,18,9,29,27,0.931,0.11259,1.0,1991.0,4.0,4.0,How many women are in the scene?,1.0,4824.0,2.0,2.0,Where is the pizza slice located?,49.0,2.0,,,,,0.625,0.25,0.8,10.0,1.0,8.0,1.2262495,-0.2673455,1.585527302928803,0.19086885825778804,-0.25135480178357084,-0.23220872480850183,-0.9553739878257057,-1.0625159028972762,-0.10979169710947823
Encode-Decode_Experiment-13-1,2383555,encoding,-0.941434,0.043478,0.111478,0.07223,23,1,False,0.250284,0.2218,2,24,33,26,0.7879,0.198782,0.0,6222.0,3.0,2.0,Who is holding the child in the boat?,1.0,3642.0,4.0,4.0,What is the woman at the back doing in the boat?,1.0,1.0,,,,,0.3333333333333333,0.2,0.45454545454545453,7.0,2.0,5.0,0.20344205263157894,-1.1448760526315789,0.9789907763408688,0.25643641938735734,-1.5763631291618418,-0.9944068938709278,-0.18298308332754162,0.7151070223605123,-1.3064336666894596
Encode-Decode_Experiment-13-1,2362704,encoding,-0.569881,0.074074,0.113481,0.06915,27,2,False,0.357824,0.25117,3,30,33,33,1.0,0.260866,1.0,4661.0,4.0,4.0,What are the bears doing with the pumpkins?,1.0,1935.0,2.0,2.0,How many bears are in the scene?,2.0,2.0,,,,,0.4444444444444444,0.2,0.42857142857142855,4.0,1.0,3.0,0.2529216818181818,-0.8228026818181817,1.0313779255756825,0.22938201361846952,-1.3172982580376635,-0.7146630914453972,-0.18298308332754162,1.9865435613433295,-1.2485445683295646
Encode-Decode_Experiment-13-1,2408717,encoding,0.977161,0.291667,0.207042,0.086603,24,7,False,0.27242,0.165683,15,13,38,28,0.7368,0.225013,1.0,5354.0,3.0,3.0,What are the surfers doing with the surfboards?,1.0,3379.0,2.0,2.0,How many surfers are in the scene?,3.0,2.0,,,,,0.375,0.14285714285714285,0.4444444444444444,6.0,1.0,4.0,0.5661411363636364,0.41101986363636356,0.7503624691835715,0.17981171008099298,-0.23862513104449967,0.35700020537455945,0.7825055472951635,0.9768191222947101,-0.8820908961722178
Encode-Decode_Experiment-13-1,2356991,encoding,1.402613,0.307692,0.182385,0.089339,26,8,False,0.119732,0.180797,14,16,33,30,0.9091,0.156088,1.0,11044.0,2.0,2.0,What is the current action of the gloved player on the base?,1.0,8942.0,1.0,1.0,How is the player on the left (from your perspective) reaching the base?,4.0,2.0,,,,,0.6666666666666666,0.8571428571428571,0.4,10.0,6.0,4.0,0.9049161818181819,0.4976968181818182,1.0809388187421525,0.24884533735636263,0.05802075137207064,0.43228535169377746,-0.18298308332754162,-0.8283984922134584,-0.4857382506373145
Encode-Decode_Experiment-13-1,2349475,encoding,1.996356,0.458333,0.248625,0.105046,24,11,False,0.100344,0.047474,20,8,35,28,0.8,0.095884,1.0,7850.0,3.0,3.0,Which part of the blender is the woman holding?,1.0,3279.0,1.0,1.0,What is the man doing to power the blender?,5.0,2.0,,,,,0.55,0.3,0.5384615384615384,11.0,3.0,7.0,1.2590901363636364,0.7372658636363636,1.198726478834509,0.15352989471574768,0.4720073260353972,0.6403682352605103,0.2032123689215404,-1.0576212150867974,-0.07136952499726607
Encode-Decode_Experiment-13-1,2385851,encoding,-0.567677,0.090909,0.136545,0.080391,22,2,False,0.103798,0.287702,5,23,30,28,0.9333,0.256344,1.0,4739.0,2.0,2.0,What are the men doing with the suitcases?,0.0,5823.0,4.0,3.0,Where are the men?,7.0,1.0,,,,,0.4375,0.42857142857142855,0.4444444444444444,7.0,3.0,4.0,-0.2549824210526316,-0.3126945789473684,0.9541441460325883,0.18780433391233894,-1.3157615217552014,-0.27159764960285404,-0.7622762617011647,-1.0167848583298078,-1.842771143019491
Encode-Decode_Experiment-13-1,2345035,encoding,0.447078,0.428571,0.371048,0.128666,21,9,False,0.15256,0.144497,16,10,35,26,0.7429,0.163761,0.0,6182.0,2.0,3.0,What are the people doing with the football?,1.0,5894.0,2.0,2.0,Who runs toward the football in the scene?,8.0,1.0,,,,,0.42857142857142855,0.6,0.3333333333333333,9.0,3.0,5.0,0.3580512727272727,0.08902672727272726,1.091743574781149,0.23065471618754577,-0.6082248492007729,0.07732609231827077,0.2032123689215404,-0.44027575926080886,-1.1255473404053167
Encode-Decode_Experiment-13-1,2347025,encoding,0.571459,0.727273,0.664545,0.109767,22,16,False,0.091097,0.035702,26,4,30,30,1.0,0.083711,1.0,3674.0,1.0,1.0,Where is the baby in relation to the mother?,1.0,3658.0,2.0,2.0,Who is holding the umbrella in the scene?,11.0,2.0,,,,,0.4666666666666667,0.75,0.3333333333333333,7.0,3.0,4.0,0.9484400454545454,-0.37698104545454536,1.216251282600781,0.17838999922358828,-0.5215003503128715,-0.3274350525517573,-0.7622762617011647,-1.1669477324382398,-0.4348171490755773
Encode-Decode_Experiment-13-1,2410309,encoding,0.80925,0.15,0.0894,0.074884,20,3,False,0.2882,0.303889,6,17,23,23,1.0,0.299796,1.0,4719.0,2.0,2.0,What is the baby touching?,1.0,3730.0,4.0,4.0,How many laptops or electronic devices are visible?,12.0,2.0,,,,,0.5882352941176471,0.5714285714285714,0.5,10.0,4.0,6.0,0.2172683181818182,0.5919816818181818,0.950905645616019,0.23490864783811527,-0.35570086875979706,0.5141785122434911,-2.113960344572952,1.163384759128901,-1.290257513805021
Encode-Decode_Experiment-13-1,2347400,encoding,-0.285091,0.25,0.2829,0.115402,20,5,False,0.19563,0.194686,11,18,33,29,0.8788,0.201439,1.0,4850.0,3.0,3.0,What are the men doing with the wine?,1.0,2984.0,1.0,1.0,What are the men sitting on in the scene?,13.0,2.0,,,,,0.4,0.25,0.5,8.0,2.0,6.0,0.8916799545454546,-1.1767709545454546,1.1157371185481555,0.1532970971675589,-1.118728781684479,-1.0221099017813409,-0.18298308332754162,0.06893729387281539,-0.5012240833951781
Encode-Decode_Experiment-13-1,2367132,encoding,3.972417,0.461538,0.134923,0.082221,26,12,False,0.095807,0.137473,26,8,36,34,0.9444,0.10363,1.0,3504.0,2.0,2.0,How many men are playing in the scene?,0.0,15044.0,2.0,4.0,In which hand(s) are the men holding the controllers?,15.0,1.0,,,,,0.5454545454545454,0.6,0.5,12.0,3.0,9.0,3.199006428571429,0.7734105714285713,1.3697642079851764,0.1554434927098504,1.8498134217970108,0.6717625041186152,0.39631009504608145,-1.1112617914059812,2.1982514664224917
Encode-Decode_Experiment-13-1,2397102,encoding,2.18961,0.32,0.14304,0.080818,25,8,False,0.086902,0.131221,15,15,33,30,0.9091,0.109785,1.0,3084.0,1.0,1.0,What are the couple doing with the cake?,1.0,5802.0,3.0,3.0,What is the man holding besides the cake knife?,16.0,2.0,,,,,0.8571428571428571,0.8,0.7368421052631579,18.0,4.0,14.0,2.2999614545454543,-0.11035145454545425,1.1910826134485393,0.23058448384401836,0.6067534392527093,-0.0958481460909695,-0.18298308332754162,-1.2165448710009414,1.1464064185325504
Encode-Decode_Experiment-13-1,2379478,encoding,3.470931,0.5,0.214687,0.082201,32,16,False,0.359212,0.372775,23,12,35,35,1.0,0.363862,0.0,3873.0,3.0,4.0,What is the position of the babies?,1.0,3325.0,2.0,2.0,How many babies are visible in the scene?,17.0,1.0,,,,,0.625,1.0,0.5,10.0,5.0,5.0,2.2821192,1.1888118000000003,1.138984026211384,0.27100197178886043,1.5001529266305618,1.0325682389092008,0.2032123689215404,2.0029537707175917,1.1255317263547087
Encode-Decode_Experiment-13-1,2394020,encoding,2.328615,0.764706,0.460882,0.130474,17,13,False,0.215258,0.250507,25,1,31,26,0.8387,0.216909,0.0,5040.0,1.0,2.0,What are the riders wearing on their heads?,0.0,10517.0,4.0,1.0,Where is the scene taking place?,19.0,0.0,,,,,0.5,0.3333333333333333,0.4444444444444444,6.0,1.0,4.0,1.862782909090909,0.46583209090909117,1.1176687580071856,0.2760044405049513,0.7036745041091804,0.4046085526215259,-0.5691785355766237,0.3009975169261421,0.6349257903489757
Encode-Decode_Experiment-13-1,150472,encoding,-0.511376,0.2,0.25465,0.106869,20,4,False,0.068257,0.077041,10,20,31,30,0.9677,0.077114,1.0,3206.0,2.0,2.0,Where is the pizza slice located?,1.0,3176.0,4.0,4.0,How many women are in the scene?,22.0,2.0,,,,,0.625,0.5,0.7,10.0,2.0,7.0,1.2262495,-1.7376255,1.585527302928803,0.19086885825778804,-1.2765057189244817,-1.5092522655131109,-0.5691785355766237,-1.4369831662337351,-0.10979169710947823
Encode-Decode_Experiment-13-1,2356125,encoding,2.12238,0.454545,0.247909,0.097361,22,10,False,0.293852,0.291583,19,8,33,27,0.8182,0.293749,1.0,6255.0,1.0,1.0,Where is the luggage being moved to?,1.0,5479.0,2.0,2.0,How many uniformed staff are moving the luggage?,24.0,2.0,,,,,0.45,0.5714285714285714,0.38461538461538464,9.0,4.0,5.0,0.7261805714285714,1.3961994285714288,0.9748230914120558,0.30641941378257537,0.5598774046474754,1.2126992557829863,-0.18298308332754162,1.230207888367611,-0.6948514453065571
Encode-Decode_Experiment-13-1,2360001,encoding,0.852272,0.178571,0.120893,0.067676,28,5,False,0.281527,0.329262,12,22,34,34,1.0,0.312414,0.0,6756.0,2.0,4.0,Where are the men standing?,1.0,4500.0,4.0,4.0,What are the workers doing to the clock?,25.0,1.0,,,,,0.45,0.42857142857142855,0.5454545454545454,9.0,3.0,6.0,1.2778753636363636,-0.42560336363636353,1.2615430989913956,0.21375836987739374,-0.32570383230603567,-0.36966702018253184,0.010114642796999388,1.0844904312078267,-0.04939159413600724
Encode-Decode_Experiment-13-1,2371471,encoding,2.665161,0.521739,0.247565,0.102873,23,12,False,0.265591,0.546979,24,8,32,32,1.0,0.335938,0.0,7127.0,1.0,3.0,What is nearest to the motorcyclists?,1.0,6087.0,2.0,2.0,What stunt is one motorcyclist performing?,26.0,1.0,,,,,0.5,0.6,0.4,10.0,3.0,6.0,1.755834842105263,0.9093261578947369,1.278280203850134,0.22763081837414767,0.9383307876470812,0.789814930716063,-0.37608080945208266,0.8960804192566441,0.5098010214105495
Encode-Decode_Experiment-13-1,2348899,encoding,2.057856,0.47619,0.250286,0.109777,21,10,False,0.15063,0.129168,22,8,30,30,1.0,0.144907,1.0,6089.0,4.0,4.0,What is the woman doing?,1.0,6644.0,1.0,1.0,Where is the woman located relative to the man? (from your perspective),27.0,2.0,,,,,0.6086956521739131,0.3333333333333333,0.7058823529411765,14.0,2.0,12.0,3.1134014545454547,-1.0555454545454546,1.3493713312617182,0.1380990616528036,0.5148881252057362,-0.9168168679757482,-0.7622762617011647,-0.4630939898748767,2.0980972243040474
Encode-Decode_Experiment-13-1,2369373,encoding,0.563401,0.444444,0.366222,0.138839,18,8,False,0.227792,0.204199,19,7,28,26,0.9286,0.213981,1.0,4028.0,3.0,3.0,What tool is the chef using?,1.0,4322.0,3.0,3.0,What is the appearance of the oven?,28.0,2.0,,,,,0.6,0.5,0.5833333333333334,9.0,2.0,7.0,1.1567880952380951,-0.5933870952380951,1.1961233324682243,0.3247851291499645,-0.5271187808773364,-0.5153992145110319,-1.1484717139502467,0.44918596382599907,-0.19105863784005125
Encode-Decode_Experiment-13-1,2386442,encoding,2.44309,0.695652,0.395913,0.122689,23,16,False,0.127344,0.099366,32,3,35,35,1.0,0.124946,1.0,6171.0,1.0,1.0,Who is brushing their teeth in the scene?,1.0,7296.0,3.0,3.0,What is the person on the right wearing?,29.0,2.0,,,,,0.5294117647058824,0.6666666666666666,0.38461538461538464,9.0,4.0,5.0,2.73572185,-0.2926318499999998,1.5169794942515582,0.28268098132398406,0.7834920567112058,-0.25417173181090663,0.2032123689215404,-0.7384024448381821,1.6562278704816096
Encode-Decode_Experiment-13-1,2387122,encoding,0.600094,0.461538,0.360231,0.16882,13,6,False,0.156238,0.374332,9,7,19,16,0.8421,0.261716,1.0,7180.0,1.0,1.0,What is the polar bear doing next to the enclosure edge?,1.0,5457.0,3.0,3.0,Where is the polar bear located in the scene?,30.0,2.0,,,,,0.47058823529411764,0.4,0.5,8.0,2.0,6.0,0.9178346818181818,-0.3177406818181818,0.853152743114976,0.17096934150807871,-0.5015346318699014,-0.27598055155139667,-2.886351249071116,-0.39679106900249766,-0.47062414551049625
Encode-Decode_Experiment-13-1,2370664,encoding,-1.017978,0.058824,0.166882,0.106151,17,1,False,0.104568,0.133365,2,24,26,26,1.0,0.13115,1.0,5084.0,4.0,4.0,How many donuts are in the scene?,1.0,3212.0,1.0,1.0,Where are the people located in the scene?,31.0,2.0,,,,,0.15,0.14285714285714285,0.14285714285714285,3.0,1.0,2.0,0.9945044545454546,-2.0124824545454545,1.4735680741286477,0.24003967925959163,-1.6297333387828896,-1.7479852268674194,-1.5346671661993287,-1.0076812119190142,-0.38092371550319926
Encode-Decode_Experiment-13-1,2409918,encoding,-1.778182,0.142857,0.505714,0.204061,7,1,False,0.100713,0.241141,2,7,10,9,0.9,0.217613,1.0,5887.0,4.0,4.0,Where are the elephants in the scene?,0.0,6895.0,4.0,2.0,What is the elephant on the right (from your perspective) doing with its trunk?,36.0,1.0,,,,,0.5,0.16666666666666666,0.7,8.0,1.0,7.0,2.1853706818181817,-3.9635526818181814,1.4120558982527631,0.1397239954818782,-2.1597846404493675,-3.442629533529898,-4.624230784191985,-1.0532585585600664,1.0123400032704581
Encode-Decode_Experiment-13-1,2385550,encoding,3.342677,0.464286,0.199464,0.079224,28,13,False,0.283041,0.31204,23,11,34,34,1.0,0.292423,1.0,4891.0,3.0,3.0,Which side of the frame is the boy on? (from your perspective),1.0,3565.0,4.0,4.0,Where are the tangerines in the scene?,37.0,2.0,,,,,0.6111111111111112,0.75,0.5714285714285714,11.0,3.0,8.0,1.6704073636363637,1.6722696363636365,1.32568686484865,0.20260647254233857,1.4107279832680795,1.4524860145241907,0.010114642796999388,1.102390328176582,0.4098544416762188
Encode-Decode_Experiment-13-1,2374670,encoding,0.226189,0.473684,0.443421,0.133796,19,9,False,0.237692,0.276194,25,7,35,32,0.9143,0.259207,1.0,5496.0,3.0,3.0,Where is the man standing relative to the vehicle?,1.0,4751.0,1.0,1.0,What vehicle sprays water in the scene?,41.0,2.0,,,,,0.47368421052631576,0.5714285714285714,0.36363636363636365,9.0,4.0,4.0,1.371793590909091,-1.145604590909091,0.9602344343368724,0.1915646253149963,-0.7622394320940576,-0.995039681572218,0.2032123689215404,0.5662328462504912,0.06048880686445075
Encode-Decode_Experiment-13-1,2344622,encoding,1.476616,0.304348,0.16613,0.093604,23,7,False,0.166774,0.290839,15,13,33,28,0.8485,0.25128,1.0,3713.0,4.0,4.0,What is the cat resting its head on?,1.0,4659.0,2.0,2.0,Where is the cat located?,44.0,2.0,,,,,1.0,1.0,0.9,14.0,5.0,9.0,0.5056617272727273,0.9709542727272726,0.9052091807380732,0.23195546882456822,0.10961925187617777,0.8433433647372641,-0.18298308332754162,-0.27222481110103786,-0.9528492773316288
Encode-Decode_Experiment-14-1,2369373,encoding,1.436457,0.444444,0.269333,0.121905,18,8,False,0.201006,0.326698,14,8,25,22,0.88,0.222772,0.0,5927.0,2.0,3.0,What is the appearance of the oven?,1.0,4681.0,3.0,3.0,What tool is the chef using?,1.0,1.0,,,,,0.9333333333333333,0.75,0.9166666666666666,14.0,3.0,11.0,1.1567880952380951,0.279668904761905,1.1961233324682243,0.3247851291499645,0.08161843864233002,0.24291248494308784,-1.7277648923238698,0.13249729790453954,-0.19105863784005125
Encode-Decode_Experiment-14-1,2397102,encoding,3.841226,0.37931,0.122724,0.066798,29,11,False,0.11555,0.149194,21,15,37,36,0.973,0.126972,1.0,4256.0,1.0,1.0,What are the couple doing with the cake?,1.0,4480.0,3.0,3.0,What is the man holding besides the cake knife?,2.0,2.0,,,,,0.6666666666666666,0.4,0.631578947368421,14.0,2.0,12.0,2.2999614545454543,1.5412645454545455,1.1910826134485393,0.23058448384401836,1.7583406588058572,1.3386987052056427,0.5894078211706225,-0.877841932849744,1.1464064185325504
Encode-Decode_Experiment-14-1,2350974,encoding,2.712301,0.6,0.28845,0.114866,20,12,False,0.287804,0.272957,27,3,33,30,0.9091,0.279347,1.0,12366.0,4.0,4.0,Between which two objects is the child standing?,1.0,3297.0,1.0,1.0,What is the child up against?,3.0,2.0,,,,,0.0,0.0,0.0,0.0,0.0,0.0,1.9283305714285712,0.7839704285714288,1.3162197290551871,0.3616449046192094,0.971199094523338,0.6809344967697086,-0.18298308332754162,1.1587028838319213,0.7116138160012276
Encode-Decode_Experiment-14-1,2362704,encoding,1.405212,0.173913,0.082522,0.065037,23,4,False,0.323391,0.188194,9,19,30,28,0.9333,0.248635,1.0,2038.0,2.0,2.0,How many bears are in the scene?,1.0,3418.0,4.0,4.0,What are the bears doing with the pumpkins?,4.0,2.0,,,,,0.6666666666666666,0.4,0.5714285714285714,6.0,2.0,4.0,0.2529216818181818,1.152290318181818,1.0313779255756825,0.22938201361846952,0.05983290091749669,1.0008467148097977,-0.7622762617011647,1.5794450459370124,-1.2485445683295646
Encode-Decode_Experiment-14-1,2347025,encoding,0.138287,0.684211,0.667737,0.119127,19,13,False,0.144578,0.062884,21,4,29,25,0.8621,0.129955,1.0,6163.0,1.0,1.0,Where is the baby in relation to the mother?,0.0,4779.0,3.0,2.0,Who is holding the umbrella in the scene?,5.0,1.0,,,,,0.5333333333333333,0.75,0.4166666666666667,8.0,3.0,5.0,0.9484400454545454,-0.8101530454545454,1.216251282600781,0.17838999922358828,-0.8235289932106615,-0.7036759757868533,-0.9553739878257057,-0.5346462860802327,-0.4348171490755773
Encode-Decode_Experiment-14-1,2408717,encoding,1.009447,0.26087,0.178,0.082094,23,6,False,0.321244,0.267482,12,14,33,26,0.7879,0.264068,1.0,2100.0,2.0,2.0,How many surfers are in the scene?,1.0,4261.0,3.0,3.0,What are the surfers doing with the surfboards?,6.0,2.0,,,,,0.5625,0.14285714285714285,0.7777777777777778,9.0,1.0,7.0,0.5661411363636364,0.4433058636363636,0.7503624691835715,0.17981171008099298,-0.21611375735322216,0.3850429099989773,-0.18298308332754162,1.5540612422435391,-0.8820908961722178
Encode-Decode_Experiment-14-1,2383555,encoding,-0.84846,0.045455,0.107,0.072538,22,1,False,0.40903,0.212643,2,23,32,25,0.7812,0.213888,1.0,4001.0,2.0,2.0,Who is holding the child in the boat?,1.0,3810.0,4.0,4.0,What is the woman at the back doing in the boat?,7.0,2.0,,,,,0.0,0.0,0.0,0.0,0.0,0.0,0.20344205263157894,-1.051902052631579,0.9789907763408688,0.25643641938735734,-1.5115371222990273,-0.9136523123262763,-0.37608080945208266,2.591947870578537,-1.3064336666894596
Encode-Decode_Experiment-14-1,2347400,encoding,2.033132,0.375,0.195417,0.088328,24,9,False,0.190789,0.219729,20,11,36,31,0.8611,0.205055,1.0,4992.0,3.0,3.0,What are the men doing with the wine?,1.0,2760.0,1.0,1.0,What are the men sitting on in the scene?,8.0,2.0,,,,,0.5,0.375,0.5833333333333334,10.0,3.0,7.0,0.8916799545454546,1.1414520454545456,1.1157371185481555,0.1532970971675589,0.49764934669049304,0.9914328982722959,0.39631009504608145,0.011702550658980201,-0.5012240833951781
Encode-Decode_Experiment-14-1,2409918,encoding,1.515797,0.45,0.28035,0.111921,20,9,False,0.095327,0.10184,20,11,33,31,0.9394,0.104578,0.0,9799.0,1.0,2.0,What is the elephant on the right (from your perspective) doing with its trunk?,1.0,3591.0,4.0,4.0,Where are the elephants in the scene?,9.0,1.0,,,,,0.625,0.5,0.6,10.0,3.0,6.0,2.1853706818181817,-0.6695736818181817,1.4120558982527631,0.1397239954818782,0.1369381558159023,-0.5815727245094213,-0.18298308332754162,-1.1169367917659567,1.0123400032704581
Encode-Decode_Experiment-14-1,2356991,encoding,0.473833,0.2,0.15932,0.085853,25,5,False,0.155579,0.201171,8,24,33,32,0.9697,0.189783,1.0,9904.0,2.0,2.0,What is the current action of the gloved player on the base?,1.0,6912.0,1.0,1.0,How is the player on the left (from your perspective) reaching the base?,10.0,2.0,,,,,0.4,0.2857142857142857,0.4,6.0,2.0,4.0,0.9049161818181819,-0.4310831818181819,1.0809388187421525,0.24884533735636263,-0.589569958439758,-0.3744266349588512,-0.18298308332754162,-0.4045823715800471,-0.4857382506373145
Encode-Decode_Experiment-14-1,2411268,encoding,2.938451,0.555556,0.221056,0.113835,18,10,False,0.157453,0.178419,16,11,33,27,0.8182,0.164798,1.0,7538.0,2.0,2.0,What is the child holding while picking fruit?,1.0,7174.0,4.0,4.0,Where is the fruit branch relative to the child?,11.0,2.0,,,,,0.6111111111111112,0.3333333333333333,0.6428571428571429,11.0,2.0,9.0,1.8093183499999999,1.1291326500000003,1.225331761610032,0.2724488852275384,1.1288819031797959,0.9807326205084599,-0.18298308332754162,-0.38242622434130974,0.57237449053406
Encode-Decode_Experiment-14-1,2370664,encoding,0.09714,0.173913,0.166087,0.080565,23,4,False,0.23596,0.091393,12,23,37,35,0.9459,0.147265,1.0,3149.0,4.0,4.0,How many donuts are in the scene?,1.0,5105.0,1.0,1.0,Where are the people located in the scene?,12.0,2.0,,,,,0.35,0.14285714285714285,0.35714285714285715,7.0,1.0,5.0,0.9945044545454546,-0.8973644545454545,1.4735680741286477,0.24003967925959163,-0.8522186882263028,-0.7794253341779711,0.5894078211706225,0.5457555532849135,-0.38092371550319926
Encode-Decode_Experiment-14-1,2387122,encoding,0.509501,0.5,0.435455,0.126684,22,11,False,0.114624,0.070043,21,8,34,29,0.8529,0.109765,1.0,9959.0,1.0,1.0,What is the polar bear doing next to the enclosure edge?,1.0,3811.0,3.0,3.0,Where is the polar bear located in the scene?,13.0,2.0,,,,,0.6470588235294118,0.8,0.5833333333333334,11.0,4.0,7.0,0.9178346818181818,-0.40833368181818186,0.853152743114976,0.17096934150807871,-0.5647004894184954,-0.354667063972876,0.010114642796999388,-0.8887899543775298,-0.47062414551049625
Encode-Decode_Experiment-14-1,2374670,encoding,1.280649,0.478261,0.332348,0.113937,23,11,False,0.249489,0.191983,18,9,32,27,0.8438,0.235517,1.0,11581.0,3.0,3.0,Where is the man standing relative to the vehicle?,1.0,5812.0,1.0,1.0,What vehicle sprays water in the scene?,15.0,2.0,,,,,0.3684210526315789,0.2857142857142857,0.36363636363636365,7.0,2.0,4.0,1.371793590909091,-0.0911445909090911,0.9602344343368724,0.1915646253149963,-0.027018497245998196,-0.07916560865319452,-0.37608080945208266,0.7057078030143029,0.06048880686445075
Encode-Decode_Experiment-14-1,2344622,encoding,0.544709,0.25,0.19535,0.100329,20,5,False,0.154286,0.213588,10,15,31,25,0.8065,0.213326,1.0,4246.0,4.0,4.0,What is the cat resting its head on?,1.0,5657.0,2.0,2.0,Where is the cat located?,16.0,2.0,,,,,0.14285714285714285,0.2,0.1,2.0,1.0,1.0,0.5056617272727273,0.03904727272727271,0.9052091807380732,0.23195546882456822,-0.5401517548300515,0.03391535450288029,-0.5691785355766237,-0.41986940379973064,-0.9528492773316288
Encode-Decode_Experiment-14-1,2356125,encoding,0.717822,0.296296,0.231481,0.090294,27,8,False,0.280217,0.247689,17,13,36,30,0.8333,0.255928,0.0,6148.0,4.0,2.0,How many uniformed staff are moving the luggage?,1.0,4147.0,1.0,1.0,Where is the luggage being moved to?,17.0,1.0,,,,,0.0,0.0,0.0,0.0,0.0,0.0,0.7261805714285714,-0.008358571428571437,0.9748230914120558,0.30641941378257537,-0.41944892902883374,-0.007260018263443207,0.39631009504608145,1.0690024093920603,-0.6948514453065571
Encode-Decode_Experiment-14-1,2360001,encoding,2.320179,0.269231,0.1145,0.066689,26,7,False,0.371708,0.245339,14,17,32,31,0.9688,0.318284,1.0,4558.0,4.0,4.0,Where are the men standing?,1.0,5194.0,4.0,4.0,What are the workers doing to the clock?,18.0,2.0,,,,,0.4,0.5714285714285714,0.36363636363636365,8.0,4.0,4.0,1.2778753636363636,1.0423036363636364,1.2615430989913956,0.21375836987739374,0.6977925135107904,0.9053153999721872,-0.37608080945208266,2.1506929467556177,-0.04939159413600724
Encode-Decode_Experiment-14-1,2367132,encoding,2.619632,0.428571,0.179952,0.094906,21,9,False,0.109982,0.086747,22,8,33,30,0.9091,0.100056,1.0,7143.0,4.0,4.0,In which hand(s) are the men holding the controllers?,1.0,3069.0,2.0,2.0,How many men are playing in the scene?,19.0,2.0,,,,,0.5,0.6,0.4444444444444444,11.0,3.0,8.0,3.199006428571429,-0.5793744285714286,1.3697642079851764,0.1554434927098504,0.9065857485344576,-0.503228209359147,-0.18298308332754162,-0.9436719370254585,2.1982514664224917
Encode-Decode_Experiment-14-1,2371471,encoding,-0.129305,0.333333,0.347542,0.109883,24,8,False,0.352704,0.488962,19,13,32,32,1.0,0.408059,1.0,9321.0,2.0,2.0,What stunt is one motorcyclist performing?,1.0,5747.0,3.0,3.0,What is nearest to the motorcyclists?,21.0,2.0,,,,,0.5,0.4,0.4666666666666667,10.0,2.0,7.0,1.755834842105263,-1.885139842105263,1.278280203850134,0.22763081837414767,-1.0101071852690249,-1.6373790425534134,-0.37608080945208266,1.9260102241702592,0.5098010214105495
Encode-Decode_Experiment-14-1,2349475,encoding,-0.367195,0.068966,0.089241,0.055218,29,2,False,0.111236,0.069909,4,29,35,33,0.9429,0.077785,0.0,6205.0,2.0,1.0,What is the man doing to power the blender?,1.0,3986.0,3.0,3.0,Which part of the blender is the woman holding?,27.0,1.0,,,,,0.4,0.2,0.46153846153846156,8.0,2.0,6.0,1.2590901363636364,-1.6262851363636364,1.198726478834509,0.15352989471574768,-1.1759756944500321,-1.412545181011165,0.2032123689215404,-0.9288459985850227,-0.07136952499726607
Encode-Decode_Experiment-14-1,2410309,encoding,0.556816,0.291667,0.238125,0.096157,24,7,False,0.138473,0.263642,14,16,32,30,0.9375,0.204776,1.0,3562.0,4.0,4.0,How many laptops or electronic devices are visible?,1.0,4495.0,2.0,2.0,What is the baby touching?,30.0,2.0,,,,,0.29411764705882354,0.14285714285714285,0.3333333333333333,5.0,1.0,4.0,0.2172683181818182,0.3395476818181818,0.950905645616019,0.23490864783811527,-0.5317101640080142,0.29492149374753984,-0.37608080945208266,-0.6068251969086695,-1.290257513805021
Encode-Decode_Experiment-14-1,150472,encoding,1.234119,0.363636,0.240136,0.100071,22,8,False,0.095566,0.081963,18,13,31,31,1.0,0.089862,1.0,2356.0,4.0,4.0,How many women are in the scene?,1.0,3474.0,2.0,2.0,Where is the pizza slice located?,31.0,2.0,,,,,0.375,0.25,0.5,6.0,1.0,5.0,1.2262495,0.007869499999999974,1.585527302928803,0.19086885825778804,-0.05946148237438636,0.006835224680723983,-0.5691785355766237,-1.1141111145033857,-0.10979169710947823
Encode-Decode_Experiment-14-1,2386442,encoding,3.735814,0.692308,0.293846,0.10666,26,18,False,0.114149,0.106087,26,7,33,33,1.0,0.112439,1.0,5893.0,3.0,3.0,What is the person on the right wearing?,1.0,5111.0,1.0,1.0,Who is brushing their teeth in the scene?,32.0,2.0,,,,,0.0,0.0,0.0,0.0,0.0,0.0,2.73572185,1.00009215,1.5169794942515582,0.28268098132398406,1.6848422717791296,0.8686516991776293,-0.18298308332754162,-0.8944058401504221,1.6562278704816096
Encode-Decode_Experiment-14-1,2394020,encoding,3.142319,0.636364,0.301136,0.106681,22,14,False,0.276657,0.296235,19,8,33,27,0.8182,0.293586,0.0,5297.0,4.0,1.0,Where is the scene taking place?,1.0,4901.0,2.0,2.0,What are the riders wearing on their heads?,33.0,1.0,,,,,1.0,0.6666666666666666,1.0,12.0,2.0,9.0,1.862782909090909,1.2795360909090912,1.1176687580071856,0.2760044405049513,1.2710286148100183,1.1113687868935713,-0.18298308332754162,1.0269128233889093,0.6349257903489757
Encode-Decode_Experiment-14-1,2385851,encoding,0.548615,0.136364,0.0995,0.067194,22,3,False,0.125317,0.240421,6,18,27,24,0.8889,0.226293,1.0,2432.0,2.0,2.0,What are the men doing with the suitcases?,1.0,9734.0,3.0,3.0,Where are the men?,35.0,2.0,,,,,0.8125,0.5714285714285714,1.0,13.0,4.0,9.0,-0.2549824210526316,0.8035974210526315,0.9541441460325883,0.18780433391233894,-0.5374283011461598,0.6979819462157855,-1.3415694400747877,-0.7623674984416615,-1.842771143019491
Encode-Decode_Experiment-14-1,2385550,encoding,-0.836359,0.095238,0.175429,0.095881,21,2,False,0.368029,0.282615,4,22,27,26,0.963,0.288785,1.0,2935.0,4.0,4.0,Where are the tangerines in the scene?,1.0,6075.0,3.0,3.0,Which side of the frame is the boy on? (from your perspective),36.0,2.0,,,,,0.3888888888888889,0.5,0.35714285714285715,7.0,2.0,5.0,1.6704073636363637,-2.5067663636363635,1.32568686484865,0.20260647254233857,-1.503099714969592,-2.177306222445656,-1.3415694400747877,2.10719643357989,0.4098544416762188
Encode-Decode_Experiment-14-1,2345035,encoding,-0.717731,0.1,0.1709,0.098784,20,2,False,0.109165,0.162186,5,19,33,24,0.7273,0.143989,0.0,7745.0,4.0,3.0,What are the people doing with the football?,1.0,5836.0,2.0,2.0,Who runs toward the football in the scene?,44.0,1.0,,,,,0.47619047619047616,0.2,0.5333333333333333,10.0,1.0,8.0,0.3580512727272727,-1.0757822727272728,1.091743574781149,0.23065471618754577,-1.4203864882382264,-0.9343939947431018,-0.18298308332754162,-0.9533312605548332,-1.1255473404053167
Encode-Decode_Experiment-14-1,2379478,encoding,2.698042,0.521739,0.234739,0.106373,23,12,False,0.344475,0.329327,20,8,33,28,0.8485,0.350471,0.0,3323.0,3.0,4.0,What is the position of the babies?,1.0,1994.0,2.0,2.0,How many babies are visible in the scene?,45.0,1.0,,,,,0.5625,0.8,0.5,9.0,4.0,5.0,2.2821192,0.41592280000000015,1.138984026211384,0.27100197178886043,0.9612570243547223,0.3612587569522643,-0.18298308332754162,1.828719436748931,1.1255317263547087
Encode-Decode_Experiment-14-1,2412687,encoding,-0.388971,0.375,0.430187,0.141881,16,6,False,0.136834,0.129977,12,11,28,23,0.8214,0.129204,1.0,2710.0,4.0,4.0,What is the dog biting onto in the scene?,1.0,7457.0,3.0,3.0,What is the human's body position?,46.0,2.0,,,,,0.0,0.0,0.0,0.0,0.0,0.0,1.451365105263158,-1.840336105263158,1.1312051634497753,0.283576893365701,-1.1911589836001673,-1.5984637864568607,-1.1484717139502467,-0.6262029585545021,0.15358415330927788
Encode-Decode_Experiment-14-1,2348899,encoding,4.824092,0.730769,0.279808,0.093481,26,19,False,0.204805,0.124355,31,1,32,32,1.0,0.202291,1.0,4351.0,1.0,1.0,Where is the woman located relative to the man? (from your perspective),1.0,4085.0,4.0,4.0,What is the woman doing?,58.0,2.0,,,,,0.5652173913043478,0.3333333333333333,0.6470588235294118,13.0,2.0,11.0,3.1134014545454547,1.7106905454545456,1.3493713312617182,0.1380990616528036,2.4436427654295065,1.4858573273234836,-0.37608080945208266,0.17741256117026133,2.0980972243040474
Encode-Decode_Experiment-15-1,2347025,encoding,-0.104589,0.785714,0.798929,0.126345,14,11,False,0.067175,0.083575,42,2,49,44,0.898,0.079173,1.0,6200.0,2.0,2.0,Who is holding the umbrella in the scene?,1.0,2622.0,1.0,1.0,Where is the baby in relation to the mother?,1.0,2.0,,,,,0.6,0.5,0.5833333333333334,9.0,2.0,7.0,0.9484400454545454,-1.0530290454545455,1.216251282600781,0.17838999922358828,-0.9928739847439177,-0.9146311863536655,2.906580534665115,-1.449775562878513,-0.4348171490755773
Encode-Decode_Experiment-15-1,2374670,encoding,0.823044,0.416667,0.323792,0.112843,24,10,False,0.230862,0.247911,25,9,35,34,0.9714,0.242316,1.0,7792.0,1.0,1.0,What vehicle sprays water in the scene?,0.0,4486.0,2.0,3.0,Where is the man standing relative to the vehicle?,2.0,1.0,,,,,0.42105263157894735,0.42857142857142855,0.36363636363636365,8.0,3.0,4.0,1.371793590909091,-0.548749590909091,0.9602344343368724,0.1915646253149963,-0.3460830192678352,-0.4766283432643791,0.2032123689215404,0.4854823202950085,0.06048880686445075
Encode-Decode_Experiment-15-1,2369373,encoding,1.50858,0.4375,0.250875,0.123709,16,7,False,0.185941,0.287374,21,10,37,31,0.8378,0.191001,1.0,4360.0,3.0,3.0,What tool is the chef using?,1.0,3235.0,3.0,3.0,What is the appearance of the oven?,3.0,2.0,,,,,0.6666666666666666,0.5,0.6666666666666666,10.0,2.0,8.0,1.1567880952380951,0.3517919047619049,1.1961233324682243,0.3247851291499645,0.13190611146448217,0.3055564787988421,0.5894078211706225,-0.045614952976771046,-0.19105863784005125
Encode-Decode_Experiment-15-1,2371471,encoding,0.760647,0.45,0.35825,0.120621,20,9,False,0.214091,0.578966,21,17,38,38,1.0,0.377325,1.0,5313.0,2.0,2.0,What stunt is one motorcyclist performing?,1.0,8140.0,3.0,3.0,What is nearest to the motorcyclists?,4.0,2.0,,,,,0.5,0.4,0.4666666666666667,10.0,2.0,7.0,1.755834842105263,-0.995187842105263,1.278280203850134,0.22763081837414767,-0.38958925058217087,-0.8643919563268795,0.7825055472951635,0.2872001723009519,0.5098010214105495
Encode-Decode_Experiment-15-1,2349475,encoding,0.74524,0.285714,0.209952,0.101661,21,6,False,0.088462,0.044051,16,19,37,35,0.9459,0.068249,1.0,4076.0,3.0,3.0,Which part of the blender is the woman holding?,1.0,4491.0,1.0,1.0,What is the man doing to power the blender?,5.0,2.0,,,,,0.7,0.7,0.5384615384615384,14.0,7.0,7.0,1.2590901363636364,-0.5138501363636364,1.198726478834509,0.15352989471574768,-0.4003317623352995,-0.44631566608629947,0.5894078211706225,-1.1981011198310214,-0.07136952499726607
Encode-Decode_Experiment-15-1,2356125,encoding,0.744871,0.28,0.216,0.085921,25,7,False,0.289355,0.192174,15,25,45,40,0.8889,0.230506,1.0,7624.0,1.0,1.0,Where is the luggage being moved to?,1.0,5413.0,2.0,2.0,How many uniformed staff are moving the luggage?,6.0,2.0,,,,,0.5,0.42857142857142855,0.5384615384615384,10.0,3.0,7.0,0.7261805714285714,0.018690428571428552,0.9748230914120558,0.30641941378257537,-0.40058904713032156,0.016233976575988025,2.1341896301669507,1.1770402287450914,-0.6948514453065571
Encode-Decode_Experiment-15-1,2386442,encoding,5.329251,0.708333,0.202167,0.094979,24,17,False,0.119667,0.143727,49,4,53,53,1.0,0.121483,1.0,4191.0,3.0,3.0,What is the person on the right wearing?,1.0,2598.0,1.0,1.0,Who is brushing their teeth in the scene?,7.0,2.0,,,,,0.47058823529411764,0.3333333333333333,0.46153846153846156,8.0,2.0,6.0,2.73572185,2.59352915,1.5169794942515582,0.28268098132398406,2.7958642553171367,2.2526659198496986,3.678971439163279,-0.8291669818455385,1.6562278704816096
Encode-Decode_Experiment-15-1,2385550,encoding,-0.241808,0.076923,0.098077,0.087482,13,1,False,0.219235,0.15114,7,30,38,37,0.9737,0.176826,1.0,3406.0,4.0,4.0,Where are the tangerines in the scene?,1.0,3460.0,3.0,3.0,Which side of the frame is the boy on? (from your perspective),9.0,2.0,,,,,0.7222222222222222,0.5,0.7857142857142857,13.0,2.0,11.0,1.6704073636363637,-1.9122153636363637,1.32568686484865,0.20260647254233857,-1.0885497633025314,-1.6608960732431464,0.7825055472951635,0.34801725949202156,0.4098544416762188
Encode-Decode_Experiment-15-1,2362704,encoding,-0.729997,0.190476,0.26981,0.108676,21,4,False,0.178577,0.16486,13,21,34,34,1.0,0.170104,1.0,1438.0,2.0,2.0,How many bears are in the scene?,1.0,2827.0,4.0,4.0,What are the bears doing with the pumpkins?,11.0,2.0,,,,,0.4444444444444444,0.2,0.42857142857142855,4.0,1.0,3.0,0.2529216818181818,-0.9829186818181819,1.0313779255756825,0.22938201361846952,-1.4289389416142166,-0.8537353114058532,0.010114642796999388,-0.13267891683272645,-1.2485445683295646
Encode-Decode_Experiment-15-1,2410309,encoding,0.413012,0.25,0.201,0.11864,16,4,False,0.325309,0.279604,6,23,30,29,0.9667,0.288897,1.0,4005.0,2.0,2.0,What is the baby touching?,1.0,3441.0,4.0,4.0,How many laptops or electronic devices are visible?,12.0,2.0,,,,,0.5882352941176471,0.2857142857142857,0.6666666666666666,10.0,2.0,8.0,0.2172683181818182,0.1957436818181818,0.950905645616019,0.23490864783811527,-0.6319773256973058,0.17001741470988332,-0.7622762617011647,1.602121401542081,-1.290257513805021
Encode-Decode_Experiment-15-1,2412687,encoding,2.720342,0.647059,0.313882,0.122476,17,11,False,0.14633,0.40504,30,2,35,32,0.9143,0.15471,1.0,3573.0,4.0,4.0,What is the dog biting onto in the scene?,1.0,4651.0,3.0,3.0,What is the human's body position?,13.0,2.0,,,,,0.6,1.0,0.5555555555555556,9.0,4.0,5.0,1.451365105263158,1.268976894736842,1.1312051634497753,0.283576893365701,0.9768056718587639,1.1021973683428168,0.2032123689215404,-0.5139325347663228,0.15358415330927788
Encode-Decode_Experiment-15-1,2409918,encoding,2.357866,0.521739,0.277652,0.10352,23,12,False,0.12614,0.121713,23,9,39,32,0.8205,0.14756,0.0,6143.0,4.0,2.0,What is the elephant on the right (from your perspective) doing with its trunk?,1.0,5553.0,4.0,4.0,Where are the elephants in the scene?,14.0,1.0,,,,,0.6875,0.5,0.8,11.0,3.0,8.0,2.1853706818181817,0.1724953181818183,1.4120558982527631,0.1397239954818782,0.7240697277926208,0.14982454490700908,0.9756032734197045,-0.7526372374077871,1.0123400032704581
Encode-Decode_Experiment-15-1,2344622,encoding,1.846181,0.388889,0.193167,0.106015,18,7,False,0.164272,0.119036,15,16,35,31,0.8857,0.154646,1.0,5472.0,2.0,2.0,Where is the cat located?,1.0,3186.0,4.0,4.0,What is the cat resting its head on?,15.0,2.0,,,,,0.7142857142857143,0.8,0.6,10.0,4.0,6.0,0.5056617272727273,1.3405192727272728,0.9052091807380732,0.23195546882456822,0.36729799245156536,1.1643370503757133,0.2032123689215404,-0.3018057504774096,-0.9528492773316288
Encode-Decode_Experiment-15-1,150472,encoding,1.306447,0.423077,0.290346,0.101597,26,11,False,0.069874,0.099435,27,12,39,39,1.0,0.07897,1.0,4101.0,2.0,2.0,Where is the pizza slice located?,1.0,2987.0,4.0,4.0,How many women are in the scene?,16.0,2.0,,,,,0.5,0.25,0.7,8.0,1.0,7.0,1.2262495,0.08019749999999992,1.585527302928803,0.19086885825778804,-0.009030873554999742,0.06965727572683961,0.9756032734197045,-1.4178655087710679,-0.10979169710947823
Encode-Decode_Experiment-15-1,2385851,encoding,-1.46333,0.05,0.19455,0.098782,20,1,False,0.317342,0.201548,3,28,37,31,0.8378,0.242951,1.0,5086.0,3.0,3.0,Where are the men?,1.0,2998.0,2.0,2.0,What are the men doing with the suitcases?,21.0,2.0,,,,,0.6875,0.5714285714285714,0.7777777777777778,11.0,4.0,7.0,-0.2549824210526316,-1.2083475789473686,0.9541441460325883,0.18780433391233894,-1.9402544716627077,-1.0495364628647534,0.5894078211706225,1.5079282184839062,-1.842771143019491
Encode-Decode_Experiment-15-1,2383555,encoding,1.462279,0.1,0.0349,0.04452,20,2,False,0.168497,0.179873,10,35,49,45,0.9184,0.184244,1.0,3426.0,2.0,2.0,Who is holding the child in the boat?,1.0,5662.0,4.0,4.0,What is the woman at the back doing in the boat?,22.0,2.0,,,,,0.5238095238095238,0.3,0.7272727272727273,11.0,3.0,8.0,0.20344205263157894,1.258836947368421,0.9789907763408688,0.25643641938735734,0.09962279630373644,1.0933900974216815,2.906580534665115,-0.25185392439220955,-1.3064336666894596
Encode-Decode_Experiment-15-1,2397102,encoding,2.239179,0.6,0.33215,0.11962,20,12,False,0.108911,0.125918,31,4,35,35,1.0,0.110855,1.0,2329.0,1.0,1.0,What are the couple doing with the cake?,1.0,3435.0,3.0,3.0,What is the man holding besides the cake knife?,23.0,2.0,,,,,0.7619047619047619,1.0,0.5789473684210527,16.0,5.0,11.0,2.2999614545454543,-0.06078245454545428,1.1910826134485393,0.23058448384401836,0.6413153633840025,-0.05279391746160181,0.2032123689215404,-0.9563342815786535,1.1464064185325504
Encode-Decode_Experiment-15-1,2348899,encoding,2.156522,0.5,0.255389,0.113428,18,9,False,0.190768,0.093918,20,14,34,34,1.0,0.150888,1.0,4196.0,1.0,1.0,Where is the woman located relative to the man? (from your perspective),1.0,2770.0,4.0,4.0,What is the woman doing?,25.0,2.0,,,,,0.6521739130434783,0.6666666666666666,0.6470588235294118,15.0,4.0,11.0,3.1134014545454547,-0.9568794545454549,1.3493713312617182,0.1380990616528036,0.5836828720502998,-0.8311183765406743,0.010114642796999388,0.011454269393231358,2.0980972243040474
Encode-Decode_Experiment-15-1,2360001,encoding,0.797404,0.217391,0.152087,0.081896,23,5,False,0.413988,0.240979,12,21,33,33,1.0,0.303891,0.0,3772.0,1.0,4.0,What are the workers doing to the clock?,0.0,4063.0,1.0,4.0,Where are the men standing?,26.0,0.0,,,,,0.65,0.5714285714285714,0.8181818181818182,13.0,4.0,9.0,1.2778753636363636,-0.48047136363636356,1.2615430989913956,0.21375836987739374,-0.36396047765364803,-0.41732381003982466,-0.18298308332754162,2.650565895130116,-0.04939159413600724
Encode-Decode_Experiment-15-1,2370664,encoding,1.268825,0.238095,0.139095,0.078025,21,5,False,0.199412,0.103866,10,31,41,41,1.0,0.12717,1.0,2589.0,1.0,1.0,Where are the people located in the scene?,1.0,2830.0,4.0,4.0,How many donuts are in the scene?,27.0,2.0,,,,,0.65,0.7142857142857143,0.5714285714285714,13.0,5.0,8.0,0.9945044545454546,0.27432054545454554,1.4735680741286477,0.24003967925959163,-0.03526276666697513,0.23826705161961834,1.3617987256687865,0.11365156754245483,-0.38092371550319926
Encode-Decode_Experiment-15-1,2350974,encoding,1.187243,0.409091,0.278227,0.110225,22,9,False,0.187802,0.212155,21,20,45,41,0.9111,0.192998,1.0,4588.0,4.0,4.0,Between which two objects is the child standing?,1.0,2251.0,1.0,1.0,What is the child up against?,28.0,2.0,,,,,0.75,0.5,0.7,9.0,2.0,7.0,1.9283305714285712,-0.7410875714285712,1.3162197290551871,0.3616449046192094,-0.09214571557615558,-0.6436876623427662,2.1341896301669507,-0.023612503664449808,0.7116138160012276
Encode-Decode_Experiment-15-1,2356991,encoding,-0.764326,0.173913,0.254956,0.106033,23,4,False,0.077566,0.240647,14,28,42,42,1.0,0.186287,1.0,5553.0,2.0,2.0,What is the current action of the gloved player on the base?,1.0,12279.0,1.0,1.0,How is the player on the left (from your perspective) reaching the base?,30.0,2.0,,,,,0.5333333333333333,0.5714285714285714,0.4,8.0,4.0,4.0,0.9049161818181819,-1.669242181818182,1.0809388187421525,0.24884533735636263,-1.4528747945364695,-1.4498564533031653,1.5548964517933277,-1.3269236280024626,-0.4857382506373145
Encode-Decode_Experiment-15-1,2387122,encoding,1.388081,0.555556,0.360833,0.140282,18,10,False,0.127178,0.047365,25,3,31,28,0.9032,0.128996,1.0,2723.0,3.0,3.0,Where is the polar bear located in the scene?,1.0,9753.0,1.0,1.0,What is the polar bear doing next to the enclosure edge?,33.0,2.0,,,,,0.6470588235294118,0.4,0.75,11.0,2.0,9.0,0.9178346818181818,0.47024631818181806,0.853152743114976,0.17096934150807871,0.047888332290064534,0.408442625332736,-0.5691785355766237,-0.7403650491293402,-0.47062414551049625
Encode-Decode_Experiment-15-1,2394020,encoding,1.790214,0.652174,0.444565,0.115969,23,15,False,0.29277,0.351148,26,5,36,31,0.8611,0.309275,1.0,2942.0,2.0,2.0,What are the riders wearing on their heads?,1.0,2465.0,1.0,1.0,Where is the scene taking place?,34.0,2.0,,,,,0.5833333333333334,0.6666666666666666,0.4444444444444444,7.0,2.0,4.0,1.862782909090909,-0.07256890909090896,1.1176687580071856,0.2760044405049513,0.32827507070902284,-0.06303129785518766,0.39631009504608145,1.2174154917228328,0.6349257903489757
Encode-Decode_Experiment-15-1,2345035,encoding,0.752731,0.473684,0.376526,0.129074,19,9,False,0.20552,0.219194,19,7,30,26,0.8667,0.19444,1.0,5744.0,2.0,2.0,Who runs toward the football in the scene?,0.0,3747.0,2.0,3.0,What are the people doing with the football?,39.0,1.0,,,,,0.47619047619047616,0.6,0.4666666666666667,10.0,3.0,7.0,0.3580512727272727,0.3946797272727273,1.091743574781149,0.23065471618754577,-0.39510867182172205,0.3428076260036817,-0.7622762617011647,0.18586594712314158,-1.1255473404053167
Encode-Decode_Experiment-15-1,2411268,encoding,3.119016,0.619048,0.248667,0.118749,21,13,False,0.169197,0.11267,24,10,39,34,0.8718,0.173714,1.0,5627.0,4.0,4.0,Where is the fruit branch relative to the child?,1.0,3900.0,2.0,2.0,What is the child holding while picking fruit?,43.0,2.0,,,,,0.8888888888888888,0.8333333333333334,0.7142857142857143,16.0,5.0,10.0,1.8093183499999999,1.30969765,1.225331761610032,0.2724488852275384,1.254780626792678,1.1375662623503724,0.9756032734197045,-0.24357788220057902,0.57237449053406
Encode-Decode_Experiment-15-1,2367132,encoding,1.733934,0.266667,0.1365,0.07507,30,8,False,0.11272,0.088811,17,25,49,42,0.8571,0.093946,1.0,3457.0,4.0,4.0,In which hand(s) are the men holding the controllers?,1.0,2026.0,2.0,2.0,How many men are playing in the scene?,44.0,2.0,,,,,0.2727272727272727,0.4,0.2222222222222222,6.0,2.0,4.0,3.199006428571429,-1.4650724285714287,1.3697642079851764,0.1554434927098504,0.28903391010241025,-1.2725203917427685,2.906580534665115,-0.9113007891387656,2.1982514664224917
Encode-Decode_Experiment-15-1,2347400,encoding,-0.862426,0.272727,0.374,0.117428,22,6,False,0.263116,0.350251,23,15,42,38,0.9048,0.283332,1.0,2560.0,3.0,3.0,What are the men doing with the wine?,1.0,2462.0,1.0,1.0,What are the men sitting on in the scene?,48.0,2.0,,,,,0.6,0.5,0.5833333333333334,12.0,4.0,7.0,0.8916799545454546,-1.7541059545454547,1.1157371185481555,0.1532970971675589,-1.5212748985789126,-1.5235667212801407,1.5548964517933277,0.866818698650521,-0.5012240833951781
Encode-Decode_Experiment-15-1,2408717,encoding,0.567745,0.368421,0.304421,0.112727,19,7,False,0.182601,0.196408,19,8,40,27,0.675,0.200389,1.0,3120.0,2.0,2.0,How many surfers are in the scene?,1.0,2779.0,3.0,3.0,What are the surfers doing with the surfboards?,53.0,2.0,,,,,0.5,0.2857142857142857,0.5555555555555556,8.0,2.0,5.0,0.5661411363636364,0.0016038636363636671,0.7503624691835715,0.17981171008099298,-0.5240899322334998,0.0013930705015297753,1.1687009995442454,-0.08510349714826619,-0.8820908961722178
Encode-Decode_Experiment-16-1,2412687,encoding,3.53271,0.666667,0.292619,0.105881,21,14,False,0.210374,0.365635,25,3,29,28,0.9655,0.220226,1.0,7704.0,3.0,3.0,What is the human's body position?,1.0,5853.0,4.0,4.0,What is the dog biting onto in the scene?,1.0,2.0,,,,,0.8666666666666667,0.75,1.0,13.0,3.0,9.0,1.451365105263158,2.0813448947368416,1.1312051634497753,0.283576893365701,1.5432282582068928,1.8077971908767023,-0.9553739878257057,0.24325438826339257,0.15358415330927788
Encode-Decode_Experiment-16-1,2410309,encoding,0.272189,0.208333,0.18325,0.092154,24,5,False,0.311754,0.239212,12,21,36,33,0.9167,0.272183,1.0,3780.0,4.0,4.0,How many laptops or electronic devices are visible?,1.0,4614.0,2.0,2.0,What is the baby touching?,2.0,2.0,,,,,0.7647058823529411,0.8571428571428571,0.5833333333333334,13.0,6.0,7.0,0.2172683181818182,0.05492068181818183,0.950905645616019,0.23490864783811527,-0.7301659888121781,0.047702547791578565,0.39631009504608145,1.4418617559598592,-1.290257513805021
Encode-Decode_Experiment-16-1,2397102,encoding,3.126477,0.407407,0.154037,0.08104,27,11,False,0.146453,0.106747,16,18,34,34,1.0,0.125432,1.0,3428.0,1.0,1.0,What are the couple doing with the cake?,1.0,3456.0,3.0,3.0,What is the man holding besides the cake knife?,3.0,2.0,,,,,0.3333333333333333,0.2,0.3157894736842105,7.0,1.0,6.0,2.2999614545454543,0.8265155454545456,1.1910826134485393,0.23058448384401836,1.2599827998432456,0.717887979578498,0.010114642796999388,-0.512478315924079,1.1464064185325504
