SubjectID,StimID,Phase,svg_z_enc,svg_obs,svg_null_mean,svg_null_std,n_transitions,n_relational,low_n_enc,mean_salience_relational_enc,mean_salience_nonrelational,n_relational_fixations,n_nonrelational_fixations,n_fixations_enc,n_aoi,aoi_prop_enc,mean_salience_enc,enc_q1_accuracy,enc_q1_rt_ms,enc_q1_response,enc_q1_correct_key,enc_q1_question,enc_q2_accuracy,enc_q2_rt_ms,enc_q2_response,enc_q2_correct_key,enc_q2_question,enc_trial_index,enc_total_correct,dec_free_response,dec_rt_ms,dec_trial_index,dec_cue_question,prop_total,prop_relations,prop_objects,n_total_recalled,n_relations_recalled,n_objects_recalled,svg_z_enc_image_mean,svg_z_enc_within,svg_z_enc_within_sd,prop_total_image_sd,svg_z_enc_z,svg_z_enc_within_z,n_fixations_enc_z,mean_salience_relational_enc_z,svg_z_enc_image_mean_z
Encode-Decode_Experiment-1-1,2387122,encoding,-0.330065,0.347826,0.387522,0.120266,23,8,False,0.316857,0.346243,16,13,33,29,0.8788,0.308556,1.0,7463.0,1.0,1.0,What is the polar bear doing next to the enclosure edge?,1.0,5668.0,3.0,3.0,Where is the polar bear located in the scene?,2.0,2.0,,,,,0.6470588235294118,0.4,0.6666666666666666,11.0,2.0,8.0,0.9558800869565217,-1.2859450869565217,0.853273717353023,0.17440004216178429,-1.1594373040459083,-1.1205934430260782,-0.21166791775364238,1.4894590925564497,-0.43795356826812776
Encode-Decode_Experiment-1-1,2374670,encoding,-0.476733,0.3,0.35995,0.125752,20,6,False,0.196744,0.192463,22,14,39,36,0.9231,0.212175,0.0,6044.0,4.0,1.0,What vehicle sprays water in the scene?,1.0,9310.0,3.0,3.0,Where is the man standing relative to the vehicle?,3.0,1.0,,,,,0.21052631578947367,0.14285714285714285,0.2727272727272727,4.0,1.0,3.0,1.424489434782609,-1.901222434782609,0.971599913899086,0.195032504795674,-1.2618644898581202,-1.656756121051614,0.9241111531195616,0.07549250873911428,0.10952738351124852
Encode-Decode_Experiment-1-1,2356991,encoding,2.017518,0.321429,0.158786,0.080615,28,9,False,0.148569,0.176891,13,20,37,33,0.8919,0.161358,1.0,10953.0,1.0,1.0,How is the player on the left (from your perspective) reaching the base?,1.0,6687.0,2.0,2.0,What is the current action of the gloved player on the base?,4.0,2.0,,,,,0.6875,0.5714285714285714,0.5,11.0,4.0,5.0,0.9167154782608695,1.1008025217391304,1.0576012817561116,0.24617252899464748,0.48002270188987683,0.959257203468089,0.5455181294951603,-0.4916221264410921,-0.48370996929647453
Encode-Decode_Experiment-1-1,2412687,encoding,2.830765,0.666667,0.3048,0.127834,15,10,False,0.144164,0.08408,17,9,29,26,0.8966,0.127853,1.0,9147.0,3.0,3.0,What is the human's body position?,1.0,5930.0,4.0,4.0,What is the dog biting onto in the scene?,5.0,2.0,,,,,0.4666666666666667,0.5,0.4444444444444444,7.0,2.0,4.0,1.4540098000000001,1.3767551999999998,1.1010977792178993,0.2802672075044442,1.0479625495746059,1.1997268510301629,-0.968853965002445,-0.54347765250168,0.14401631916963448
Encode-Decode_Experiment-1-1,2360001,encoding,-0.770094,0.041667,0.092708,0.06628,24,1,False,0.315042,0.283575,2,35,38,37,0.9737,0.279301,1.0,11249.0,4.0,4.0,What are the workers doing to the clock?,1.0,4944.0,4.0,4.0,Where are the men standing?,6.0,2.0,,,,,0.45,0.42857142857142855,0.5454545454545454,9.0,3.0,6.0,1.3223312173913044,-2.0924252173913045,1.2508420837581216,0.209153195740676,-1.466736320503225,-1.8233733325118178,0.734814641307361,1.4680929677437442,-0.009825075736390581
Encode-Decode_Experiment-1-1,2397102,encoding,3.190341,0.571429,0.227286,0.10787,21,12,False,0.137035,0.164877,24,11,35,35,1.0,0.145785,1.0,4439.0,1.0,1.0,What are the couple doing with the cake?,1.0,4350.0,3.0,3.0,What is the man holding besides the cake knife?,7.0,2.0,,,,,0.5714285714285714,0.6,0.47368421052631576,12.0,3.0,9.0,2.353308782608696,0.8370322173913043,1.1914902426537477,0.2341667244380696,1.2990763423965705,0.7294034744751023,0.16692510587075896,-0.627400023735716,1.1946762456454432
Encode-Decode_Experiment-1-1,150472,encoding,1.668758,0.35,0.19075,0.09543,20,7,False,0.0896,0.086865,13,17,30,30,1.0,0.08805,1.0,3118.0,4.0,4.0,How many women are in the scene?,1.0,3643.0,2.0,2.0,Where is the pizza slice located?,8.0,2.0,,,,,0.5,0.5,0.5,8.0,2.0,5.0,1.159981142857143,0.508776857142857,1.574935994014591,0.19108672613439662,0.23646237977553014,0.4433564200062749,-0.7795574531902444,-1.1858034014165275,-0.19950027905820386
Encode-Decode_Experiment-1-1,2379478,encoding,3.182431,0.866667,0.396667,0.147686,15,13,False,0.395444,,34,0,35,34,0.9714,0.406243,1.0,4689.0,4.0,4.0,What is the position of the babies?,1.0,2082.0,2.0,2.0,How many babies are visible in the scene?,9.0,2.0,,,,,0.5625,0.8,0.5,9.0,4.0,5.0,2.336707523809524,0.8457234761904759,1.1379797750353307,0.2679417159717664,1.293552308252963,0.736977178609736,0.16692510587075896,2.414582867022602,1.1752808302311533
Encode-Decode_Experiment-1-1,2369373,encoding,1.123483,0.6,0.46848,0.117064,25,15,False,0.238755,0.215394,30,10,40,40,1.0,0.232915,1.0,6485.0,3.0,3.0,What tool is the chef using?,1.0,4938.0,3.0,3.0,What is the appearance of the oven?,10.0,2.0,,,,,0.0,0.0,0.0,0.0,0.0,0.0,1.0601126363636364,0.06337036363636361,1.2522767687875571,0.3207464838128501,-0.14433632030733598,0.055221964525059286,1.1134076649317624,0.5700447233432793,-0.31617764633970646
Encode-Decode_Experiment-1-1,2347025,encoding,0.098753,0.473684,0.460684,0.131642,19,9,False,0.098077,0.100803,26,11,39,37,0.9487,0.101181,1.0,4866.0,1.0,1.0,Where is the baby in relation to the mother?,1.0,5607.0,2.0,2.0,Who is holding the umbrella in the scene?,11.0,2.0,,,,,0.4,0.5,0.3333333333333333,6.0,2.0,4.0,0.8661421304347826,-0.7673891304347826,1.2521204182612609,0.17518419943871075,-0.8599676108229757,-0.6687153569285933,0.9241111531195616,-1.0860124151700798,-0.5427953134769564
Encode-Decode_Experiment-1-1,2349475,encoding,1.168152,0.291667,0.184917,0.091384,24,7,False,0.089086,0.054041,15,21,37,36,0.973,0.070533,1.0,4998.0,3.0,3.0,Which part of the blender is the woman holding?,0.0,14841.0,2.0,1.0,What is the man doing to power the blender?,12.0,1.0,,,,,0.6,0.5,0.5384615384615384,12.0,5.0,7.0,1.3563857391304348,-0.18823373913043473,1.2606972161362724,0.15156114020677997,-0.11314124051456799,-0.16402993873172922,0.5455181294951603,-1.1918541937877287,0.02996115998558629
Encode-Decode_Experiment-1-1,2394020,encoding,1.776663,0.615385,0.351692,0.14842,13,8,False,0.183927,0.232903,24,3,33,27,0.8182,0.211957,1.0,11365.0,1.0,1.0,Where is the scene taking place?,1.0,3777.0,2.0,2.0,What are the riders wearing on their heads?,13.0,2.0,,,,,0.3,0.14285714285714285,0.3333333333333333,6.0,1.0,4.0,1.8759885652173913,-0.09932556521739122,1.0938068118880553,0.2062750763292175,0.31181900484075725,-0.08655391138893234,-0.21166791775364238,-0.07538882554432533,0.6370182985019859
Encode-Decode_Experiment-1-1,2362704,encoding,-0.792589,0.045455,0.099455,0.068131,22,1,False,0.209003,0.157402,2,24,28,26,0.9286,0.175742,1.0,4644.0,4.0,4.0,What are the bears doing with the pumpkins?,1.0,3040.0,2.0,2.0,How many bears are in the scene?,16.0,2.0,,,,,0.6666666666666666,0.2,0.7142857142857143,6.0,1.0,5.0,0.2900980869565217,-1.0826870869565217,1.023316444275888,0.22674568787335853,-1.4824459473123839,-0.943471119255891,-1.1581504768146458,0.2198050839892263,-1.2157932864225616
Encode-Decode_Experiment-1-1,2385550,encoding,2.217431,0.391304,0.199174,0.086646,23,9,False,0.279624,0.292266,19,13,34,32,0.9412,0.305476,1.0,6081.0,3.0,3.0,Which side of the frame is the boy on? (from your perspective),1.0,4534.0,4.0,4.0,Where are the tangerines in the scene?,17.0,2.0,,,,,0.5555555555555556,0.75,0.5,10.0,3.0,7.0,1.690016956521739,0.5274140434782608,1.298616995458157,0.20640238704947952,0.6196341099494175,0.4595971669990855,-0.022371405941441727,1.051153348671351,0.4197458223873526
Encode-Decode_Experiment-1-1,2410309,encoding,2.29324,0.36,0.16272,0.086027,25,9,False,0.292115,0.298995,17,17,36,34,0.9444,0.285861,1.0,3857.0,2.0,2.0,What is the baby touching?,1.0,3350.0,4.0,4.0,How many laptops or electronic devices are visible?,20.0,2.0,,,,,0.47058823529411764,0.2857142857142857,0.5,8.0,2.0,6.0,0.2498377391304348,2.043402260869565,0.9420818502777971,0.23221824527991847,0.6725761459029859,1.780653931665527,0.3562216176829596,1.1981970208672197,-1.26282985035166
Encode-Decode_Experiment-1-1,2356125,encoding,1.7459,0.32,0.18104,0.079592,25,8,False,0.342058,0.22663,18,15,34,33,0.9706,0.284523,1.0,3847.0,2.0,2.0,How many uniformed staff are moving the luggage?,1.0,5075.0,1.0,1.0,Where is the luggage being moved to?,22.0,2.0,,,,,0.7,0.5714285714285714,0.6923076923076923,14.0,4.0,9.0,0.6704645,1.0754355,0.986571234976242,0.30458260418244965,0.2903353307118329,0.9371519685569728,-0.022371405941441727,1.7861244982892233,-0.7714074311168426
Encode-Decode_Experiment-1-1,2348899,encoding,4.591028,0.75,0.2456,0.109866,20,15,False,0.217957,0.119061,28,4,32,32,1.0,0.205595,1.0,5228.0,4.0,4.0,What is the woman doing?,1.0,9034.0,1.0,1.0,Where is the woman located relative to the man? (from your perspective),23.0,2.0,,,,,0.6086956521739131,0.6666666666666666,0.5882352941176471,14.0,4.0,10.0,3.075954782608696,1.5150732173913037,1.3305228453037807,0.1391916431781664,2.2772612744454803,1.320259418799367,-0.40096442956584305,0.32521129973190566,2.0389507393467285
Encode-Decode_Experiment-1-1,2350974,encoding,4.20909,0.736842,0.259579,0.113389,19,14,False,0.272914,0.241189,26,5,38,31,0.8158,0.278012,1.0,5186.0,4.0,4.0,Between which two objects is the child standing?,1.0,8762.0,1.0,1.0,What is the child up against?,24.0,2.0,,,,,0.5833333333333334,0.5,0.5,7.0,2.0,5.0,1.9402206,2.2688694,1.2691767624466432,0.38083073836292586,2.0105307368043825,1.977129660131805,0.734814641307361,0.9721634326971074,0.7120612222094307
Encode-Decode_Experiment-1-1,2383555,encoding,-0.030115,0.2,0.2028,0.092978,25,5,False,0.211438,0.14111,10,23,34,33,0.9706,0.165578,0.0,7759.0,3.0,2.0,Who is holding the child in the boat?,1.0,4709.0,4.0,4.0,What is the woman at the back doing in the boat?,26.0,1.0,,,,,0.5238095238095238,0.4,0.6363636363636364,11.0,4.0,7.0,0.2628826,-0.2929976,0.9892639692971846,0.25163269226245705,-0.9499639739100029,-0.255322869314309,-0.022371405941441727,0.24846982995007316,-1.247589409934006
Encode-Decode_Experiment-1-1,2409918,encoding,2.408731,0.473684,0.224211,0.103571,19,9,False,0.169894,0.098334,25,10,35,35,1.0,0.149448,1.0,9968.0,4.0,4.0,Where are the elephants in the scene?,1.0,6438.0,2.0,2.0,What is the elephant on the right (from your perspective) doing with its trunk?,27.0,2.0,,,,,0.625,0.6666666666666666,0.6,10.0,4.0,6.0,2.1433704347826086,0.2653605652173914,1.3942174989386709,0.136512805433889,0.7532305362037888,0.23123950815355204,0.16692510587075896,-0.240584874853798,0.9494031903467851
Encode-Decode_Experiment-1-1,2347400,encoding,0.212464,0.222222,0.199444,0.107208,18,4,False,0.198821,0.245429,9,18,30,27,0.9,0.241136,1.0,3779.0,3.0,3.0,What are the men doing with the wine?,1.0,2865.0,1.0,1.0,What are the men sitting on in the scene?,31.0,2.0,,,,,0.5,0.375,0.5,10.0,3.0,6.0,0.9069372173913043,-0.6944732173913043,1.092537588515419,0.14998196139732517,-0.7805563027946912,-0.6051752455524811,-0.7795574531902444,0.09994288958538904,-0.4951340085147519
Encode-Decode_Experiment-1-1,2408717,encoding,1.46445,0.363636,0.219955,0.098113,22,8,False,0.193703,0.220917,21,11,37,32,0.8649,0.207272,1.0,2675.0,2.0,2.0,How many surfers are in the scene?,1.0,4633.0,3.0,3.0,What are the surfers doing with the surfboards?,32.0,2.0,,,,,0.5,0.2857142857142857,0.5555555555555556,8.0,2.0,5.0,0.5402089565217392,0.9242410434782609,0.743584511970378,0.1829149541037654,0.09378167588019257,0.8053986625109576,0.5455181294951603,0.03969394920443827,-0.9235862752838268
Encode-Decode_Experiment-1-1,2386442,encoding,2.947547,0.769231,0.331385,0.148546,13,10,False,0.136657,0.144387,33,3,37,36,0.973,0.134292,1.0,6336.0,3.0,3.0,What is the person on the right wearing?,1.0,6401.0,1.0,1.0,Who is brushing their teeth in the scene?,33.0,2.0,,,,,0.3888888888888889,0.3333333333333333,0.38461538461538464,7.0,2.0,5.0,2.7834357142857145,0.16411128571428568,1.4946485595039771,0.2866280177038063,1.1295185237033984,0.14300924087921468,0.5455181294951603,-0.6318498282421636,1.6971978087190673
Encode-Decode_Experiment-1-1,2385851,encoding,0.29707,0.12,0.1012,0.063285,25,3,False,0.16401,0.12087,6,22,31,28,0.9032,0.15682,1.0,6572.0,3.0,3.0,Where are the men?,1.0,3877.0,2.0,2.0,What are the men doing with the suitcases?,35.0,2.0,,,,,0.3125,0.14285714285714285,0.4444444444444444,5.0,1.0,4.0,-0.2556475,0.5527175,0.9287004789022189,0.1880474464204796,-0.7214707866437382,0.4816470101469485,-0.5902609413780437,-0.3098511439435818,-1.8533932719167425
Encode-Decode_Experiment-1-1,2344622,encoding,0.018231,0.333333,0.330417,0.159986,12,4,False,0.169364,0.246224,9,10,24,19,0.7917,0.254556,1.0,3713.0,4.0,4.0,What is the cat resting its head on?,1.0,8759.0,2.0,2.0,Where is the cat located?,37.0,2.0,,,,,0.42857142857142855,0.4,0.4,6.0,2.0,4.0,0.554229,-0.535998,0.9145545251578149,0.2592563250116814,-0.9162010213554089,-0.467077366185699,-1.9153365240634483,-0.24682401873849985,-0.9072065193462326
Encode-Decode_Experiment-1-1,2411268,encoding,2.743085,0.6,0.2838,0.115272,20,12,False,0.159698,0.437671,23,8,32,31,0.9688,0.234453,0.0,9988.0,1.0,4.0,Where is the fruit branch relative to the child?,1.0,7151.0,2.0,2.0,What is the child holding while picking fruit?,38.0,1.0,,,,,0.4444444444444444,0.3333333333333333,0.42857142857142855,8.0,2.0,6.0,1.9005019047619047,0.8425830952380955,1.2652941490219538,0.27394176700670964,0.9867302722406632,0.7342405996223935,-0.40096442956584305,-0.360611876831948,0.665657476374515
Encode-Decode_Experiment-1-1,2345035,encoding,-0.53349,0.25,0.305964,0.104902,28,7,False,0.234224,0.247613,15,21,41,36,0.878,0.23046,1.0,6065.0,3.0,3.0,What are the people doing with the football?,1.0,5287.0,2.0,2.0,Who runs toward the football in the scene?,42.0,2.0,,,,,0.38095238095238093,0.2,0.4666666666666667,8.0,1.0,7.0,0.3447513913043478,-0.8782413913043479,1.0685480684002406,0.22649541661842373,-1.3015013553307775,-0.7653138181965207,1.3027041767439629,0.5167059291138756,-1.1519412885461973
Encode-Decode_Experiment-1-1,2370664,encoding,4.605735,0.555556,0.141389,0.089924,18,10,False,0.144682,0.152652,28,12,40,40,1.0,0.147073,1.0,3329.0,1.0,1.0,Where are the people located in the scene?,1.0,3201.0,4.0,4.0,How many donuts are in the scene?,45.0,2.0,,,,,0.7,0.5714285714285714,0.6428571428571429,14.0,4.0,9.0,1.038118347826087,3.567616652173913,1.4548033157376106,0.23544592289673577,2.287532067131958,3.1088791179400532,1.1134076649317624,-0.5373797722521033,-0.3418737919204743
Encode-Decode_Experiment-1-1,2367132,encoding,2.469503,0.380952,0.154952,0.091516,21,8,False,0.120313,0.081787,21,15,37,36,0.973,0.103802,1.0,4443.0,4.0,4.0,In which hand(s) are the men holding the controllers?,1.0,3240.0,2.0,2.0,How many men are playing in the scene?,46.0,2.0,,,,,0.5,0.6,0.4444444444444444,11.0,3.0,8.0,3.1965885,-0.7270854999999998,1.3368010988647756,0.16036901562573305,0.7956713203978852,-0.6335941185075541,0.5455181294951603,-0.8242508992828547,2.1798883086044936
Encode-Decode_Experiment-10-1,2362704,encoding,1.880256,0.333333,0.182967,0.079971,30,10,False,0.248115,0.1542,17,17,35,34,0.9714,0.199018,1.0,4528.0,4.0,4.0,What are the bears doing with the pumpkins?,1.0,2438.0,2.0,2.0,How many bears are in the scene?,1.0,2.0,,,,,0.3333333333333333,0.2,0.2857142857142857,3.0,1.0,2.0,0.2900980869565217,1.5901579130434782,1.023316444275888,0.22674568787335853,0.3841642980188496,1.3856894425794417,0.16692510587075896,0.680230358741032,-1.2157932864225616
Encode-Decode_Experiment-10-1,150472,encoding,-0.859561,0.15,0.24775,0.113721,20,3,False,0.087219,0.075484,5,23,31,28,0.9032,0.092926,1.0,3338.0,2.0,2.0,Where is the pizza slice located?,1.0,2893.0,4.0,4.0,How many women are in the scene?,2.0,2.0,,,,,0.5625,0.75,0.6,9.0,3.0,6.0,1.159981142857143,-2.019542142857143,1.574935994014591,0.19108672613439662,-1.5292165686354775,-1.75986183714629,-0.5902609413780437,-1.2138324610193103,-0.19950027905820386
Encode-Decode_Experiment-10-1,2370664,encoding,-0.010006,0.214286,0.2155,0.121359,14,3,False,0.069476,0.126217,6,16,26,22,0.8462,0.122232,1.0,3833.0,1.0,1.0,Where are the people located in the scene?,0.0,2566.0,3.0,4.0,How many donuts are in the scene?,4.0,1.0,,,,,0.25,0.14285714285714285,0.21428571428571427,5.0,1.0,3.0,1.038118347826087,-1.0481243478260869,1.4548033157376106,0.23544592289673577,-0.9359206360346807,-0.9133525867964286,-1.536743500439047,-1.4227025175216956,-0.3418737919204743
Encode-Decode_Experiment-10-1,2379478,encoding,0.921081,0.35,0.2475,0.111282,20,7,False,0.319026,0.389875,18,12,31,30,0.9677,0.355879,1.0,2007.0,2.0,2.0,How many babies are visible in the scene?,1.0,5045.0,4.0,4.0,What is the position of the babies?,5.0,2.0,,,,,0.0,0.0,0.0,0.0,0.0,0.0,2.336707523809524,-1.4156265238095238,1.1379797750353307,0.2679417159717664,-0.28568594846592066,-1.2335999541855924,-0.5902609413780437,1.5149924946053517,1.1752808302311533
Encode-Decode_Experiment-10-1,2412687,encoding,0.594297,0.416667,0.326083,0.152421,12,5,False,0.123179,0.199847,12,4,28,16,0.5714,0.119551,1.0,3895.0,3.0,3.0,What is the human's body position?,1.0,3399.0,4.0,4.0,What is the dog biting onto in the scene?,6.0,2.0,,,,,0.0,0.0,0.0,0.0,0.0,0.0,1.4540098000000001,-0.8597128000000002,1.1010977792178993,0.2802672075044442,-0.5138990930404553,-0.7491677026782427,-1.1581504768146458,-0.79051243442709,0.14401631916963448
Encode-Decode_Experiment-10-1,2347025,encoding,0.508345,0.52381,0.460143,0.125243,21,11,False,0.125089,0.154398,28,6,34,34,1.0,0.130261,1.0,3994.0,1.0,1.0,Where is the baby in relation to the mother?,0.0,4496.0,3.0,2.0,Who is holding the umbrella in the scene?,7.0,1.0,,,,,0.5333333333333333,0.5,0.5,8.0,2.0,6.0,0.8661421304347826,-0.35779713043478256,1.2521204182612609,0.17518419943871075,-0.5739246028648971,-0.3117902330088531,-0.022371405941441727,-0.7680279725029758,-0.5427953134769564
Encode-Decode_Experiment-10-1,2356125,encoding,2.47984,0.5,0.243727,0.103342,22,11,False,0.235264,0.258587,25,10,37,35,0.9459,0.249079,1.0,2514.0,1.0,1.0,Where is the luggage being moved to?,1.0,3297.0,2.0,2.0,How many uniformed staff are moving the luggage?,8.0,2.0,,,,,0.45,0.42857142857142855,0.46153846153846156,9.0,3.0,6.0,0.6704645,1.8093754999999998,0.986571234976242,0.30458260418244965,0.8028902762692465,1.5767192097375964,0.5455181294951603,0.5289487774914039,-0.7714074311168426
Encode-Decode_Experiment-10-1,2350974,encoding,2.945957,0.8,0.3145,0.164802,10,8,False,0.256598,,19,0,25,19,0.76,0.238674,1.0,2261.0,1.0,1.0,What is the child up against?,1.0,4270.0,4.0,4.0,Between which two objects is the child standing?,9.0,2.0,,,,,0.0,0.0,0.0,0.0,0.0,0.0,1.9402206,1.0057364,1.2691767624466432,0.38083073836292586,1.1284081299880588,0.8764150403342674,-1.7260400122512478,0.780091976805042,0.7120612222094307
Encode-Decode_Experiment-10-1,2383555,encoding,0.816161,0.285714,0.199952,0.10508,21,6,False,0.302928,0.158923,10,16,32,26,0.8125,0.204814,1.0,3491.0,2.0,2.0,Who is holding the child in the boat?,1.0,4016.0,4.0,4.0,What is the woman at the back doing in the boat?,10.0,2.0,,,,,0.3333333333333333,0.2,0.45454545454545453,7.0,2.0,5.0,0.2628826,0.5532784,0.9892639692971846,0.25163269226245705,-0.3589579664617839,0.48213578752054603,-0.40096442956584305,1.3254873280847297,-1.247589409934006
Encode-Decode_Experiment-10-1,2369373,encoding,2.615965,0.777778,0.427389,0.133942,18,14,False,0.261421,0.402052,24,1,26,25,0.9615,0.261874,1.0,4815.0,3.0,3.0,What is the appearance of the oven?,1.0,4239.0,3.0,3.0,What tool is the chef using?,11.0,2.0,,,,,0.4666666666666667,0.25,0.5,7.0,1.0,6.0,1.0601126363636364,1.5558523636363637,1.2522767687875571,0.3207464838128501,0.897954643879682,1.3557950294237426,-1.536743500439047,0.8368681861558287,-0.31617764633970646
Encode-Decode_Experiment-10-1,2385550,encoding,0.843475,0.388889,0.287722,0.11994,18,7,False,0.276524,0.262302,14,14,32,28,0.875,0.277336,1.0,4548.0,3.0,3.0,Which side of the frame is the boy on? (from your perspective),1.0,3141.0,4.0,4.0,Where are the tangerines in the scene?,13.0,2.0,,,,,0.8333333333333334,0.75,0.8571428571428571,15.0,3.0,12.0,1.690016956521739,-0.8465419565217391,1.298616995458157,0.20640238704947952,-0.33988293882607096,-0.7376904156692049,-0.40096442956584305,1.0146602429306424,0.4197458223873526
Encode-Decode_Experiment-10-1,2348899,encoding,4.18893,0.608696,0.217739,0.093331,23,14,False,0.201666,0.175792,22,6,28,28,1.0,0.196122,1.0,6102.0,1.0,1.0,Where is the woman located relative to the man? (from your perspective),1.0,3203.0,4.0,4.0,What is the woman doing?,14.0,2.0,,,,,0.5652173913043478,0.5,0.5882352941176471,13.0,3.0,10.0,3.075954782608696,1.1129752173913041,1.3305228453037807,0.1391916431781664,1.9964517825268704,0.9698646882434004,-1.1581504768146458,0.13343414307968474,2.0389507393467285
Encode-Decode_Experiment-10-1,2411268,encoding,0.473765,0.461538,0.388769,0.153598,13,6,False,0.243625,0.288897,16,9,26,25,0.9615,0.264995,1.0,6114.0,4.0,4.0,Where is the fruit branch relative to the child?,0.0,23799.0,1.0,2.0,What is the child holding while picking fruit?,15.0,1.0,,,,,0.5555555555555556,0.6666666666666666,0.35714285714285715,10.0,4.0,5.0,1.9005019047619047,-1.4267369047619047,1.2652941490219538,0.27394176700670964,-0.5980739202714636,-1.2432817206708364,-1.536743500439047,0.6273742152649734,0.665657476374515
Encode-Decode_Experiment-10-1,2387122,encoding,-0.136416,0.421053,0.439421,0.13465,19,8,False,0.179375,0.28172,13,11,24,24,1.0,0.226283,1.0,4071.0,3.0,3.0,Where is the polar bear located in the scene?,1.0,3613.0,1.0,1.0,What is the polar bear doing next to the enclosure edge?,17.0,2.0,,,,,0.4117647058823529,0.4,0.4166666666666667,7.0,2.0,5.0,0.9558800869565217,-1.0922960869565217,0.853273717353023,0.17440004216178429,-1.024200428208309,-0.9518445579845399,-1.9153365240634483,-0.12897483113519817,-0.43795356826812776
Encode-Decode_Experiment-10-1,2349475,encoding,0.821209,0.153846,0.084154,0.084866,13,2,False,0.065656,0.09436,3,20,25,23,0.92,0.088054,1.0,2724.0,3.0,3.0,Which part of the blender is the woman holding?,1.0,3992.0,1.0,1.0,What is the man doing to power the blender?,18.0,2.0,,,,,0.75,0.6,0.6923076923076923,15.0,6.0,9.0,1.3563857391304348,-0.5351767391304348,1.2606972161362724,0.15156114020677997,-0.3554326410057878,-0.46636170611997513,-1.7260400122512478,-1.4676714413699234,0.02996115998558629
Encode-Decode_Experiment-10-1,2410309,encoding,0.661148,0.263158,0.192158,0.107389,19,5,False,0.287865,0.226602,11,15,26,26,1.0,0.252521,1.0,5188.0,2.0,2.0,What is the baby touching?,1.0,3019.0,4.0,4.0,How many laptops or electronic devices are visible?,20.0,2.0,,,,,0.7647058823529411,0.7142857142857143,0.6666666666666666,13.0,5.0,8.0,0.2498377391304348,0.4113102608695651,0.9420818502777971,0.23221824527991847,-0.46721297337746015,0.35842244436007087,-1.536743500439047,1.148166150093667,-1.26282985035166
Encode-Decode_Experiment-10-1,2344622,encoding,-0.988013,0.25,0.386562,0.138219,16,4,False,0.153564,0.260008,8,17,31,25,0.8065,0.256139,1.0,3365.0,4.0,4.0,What is the cat resting its head on?,1.0,4642.0,2.0,2.0,Where is the cat located?,22.0,2.0,,,,,0.6428571428571429,0.6,0.6,9.0,3.0,6.0,0.554229,-1.542242,0.9145545251578149,0.2592563250116814,-1.6189224136183655,-1.3439347374075366,-0.5902609413780437,-0.43282113832017605,-0.9072065193462326
Encode-Decode_Experiment-10-1,2397102,encoding,1.887584,0.5,0.27925,0.116948,20,10,False,0.116305,0.084022,27,5,34,32,0.9412,0.105677,1.0,2309.0,1.0,1.0,What are the couple doing with the cake?,1.0,3756.0,3.0,3.0,What is the man holding besides the cake knife?,23.0,2.0,,,,,0.0,0.0,0.0,0.0,0.0,0.0,2.353308782608696,-0.4657247826086959,1.1914902426537477,0.2341667244380696,0.389281886160993,-0.40584014273985525,-0.022371405941441727,-0.8714329534147128,1.1946762456454432
Encode-Decode_Experiment-10-1,2409918,encoding,-0.195526,0.352941,0.379176,0.134178,17,6,False,0.170519,0.124303,16,10,35,26,0.7429,0.131688,1.0,5345.0,4.0,4.0,Where are the elephants in the scene?,1.0,3997.0,2.0,2.0,What is the elephant on the right (from your perspective) doing with its trunk?,24.0,2.0,,,,,0.6875,0.6666666666666666,0.6,11.0,4.0,6.0,2.1433704347826086,-2.3388964347826087,1.3942174989386709,0.136512805433889,-1.0654805367075033,-2.0381523560524153,0.16692510587075896,-0.23322739385768723,0.9494031903467851
Encode-Decode_Experiment-10-1,2374670,encoding,0.029488,0.714286,0.709929,0.14776,14,10,False,0.17199,0.258162,17,7,28,24,0.8571,0.215653,1.0,4770.0,1.0,1.0,What vehicle sprays water in the scene?,1.0,5684.0,3.0,3.0,Where is the man standing relative to the vehicle?,25.0,2.0,,,,,0.3684210526315789,0.42857142857142855,0.36363636363636365,7.0,3.0,4.0,1.424489434782609,-1.395001434782609,0.971599913899086,0.195032504795674,-0.9083395735229707,-1.2156269164876217,-1.1581504768146458,-0.21591082658524127,0.10952738351124852
Encode-Decode_Experiment-10-1,2360001,encoding,2.026076,0.285714,0.104571,0.089406,14,4,False,0.261531,0.219258,9,14,23,23,1.0,0.235799,1.0,4442.0,4.0,4.0,Where are the men standing?,1.0,3459.0,4.0,4.0,What are the workers doing to the clock?,27.0,2.0,,,,,0.0,0.0,0.0,0.0,0.0,0.0,1.3223312173913044,0.7037447826086958,1.2508420837581216,0.209153195740676,0.4859992738495472,0.6132546381288679,-2.104633035875649,0.8381631028111441,-0.009825075736390581
Encode-Decode_Experiment-10-1,2347400,encoding,0.444285,0.4,0.3264,0.165659,10,4,False,0.138936,0.267598,21,11,37,32,0.8649,0.188872,1.0,2603.0,1.0,1.0,What are the men sitting on in the scene?,1.0,4788.0,3.0,3.0,What are the men doing with the wine?,29.0,2.0,,,,,0.45,0.375,0.5,9.0,3.0,6.0,0.9069372173913043,-0.4626522173913043,1.092537588515419,0.14998196139732517,-0.6186615974590164,-0.4031626594858635,0.5455181294951603,-0.6050215095379459,-0.4951340085147519
Encode-Decode_Experiment-10-1,2408717,encoding,-0.059029,0.222222,0.228778,0.111057,18,4,False,0.157241,0.270898,12,12,28,24,0.8571,0.215179,1.0,3635.0,2.0,2.0,How many surfers are in the scene?,1.0,2977.0,3.0,3.0,What are the surfers doing with the surfboards?,30.0,2.0,,,,,0.8125,0.42857142857142855,1.0,13.0,3.0,9.0,0.5402089565217392,-0.5992379565217392,0.743584511970378,0.1829149541037654,-0.970156378869328,-0.5221856918321978,-1.1581504768146458,-0.38953560612385824,-0.9235862752838268
Encode-Decode_Experiment-10-1,2394020,encoding,1.732468,0.8,0.4745,0.187882,10,8,False,0.252803,,15,0,19,15,0.7895,0.247894,1.0,3488.0,1.0,1.0,Where is the scene taking place?,1.0,3246.0,2.0,2.0,What are the riders wearing on their heads?,33.0,2.0,,,,,0.0,0.0,0.0,0.0,0.0,0.0,1.8759885652173913,-0.14352056521739143,1.0938068118880553,0.2062750763292175,0.28095494808010923,-0.12506615247672945,-2.861819083124452,0.7354173521966585,0.6370182985019859
Encode-Decode_Experiment-10-1,2356991,encoding,2.220155,0.5,0.238,0.11801,16,8,False,0.128548,0.042288,20,10,31,30,0.9677,0.102377,1.0,5505.0,2.0,2.0,What is the current action of the gloved player on the base?,1.0,6324.0,1.0,1.0,How is the player on the left (from your perspective) reaching the base?,36.0,2.0,,,,,0.3125,0.2857142857142857,0.3,5.0,2.0,3.0,0.9167154782608695,1.3034395217391306,1.0576012817561116,0.24617252899464748,0.6215364448428672,1.1358383777481638,-0.5902609413780437,-0.7273087296781013,-0.48370996929647453
Encode-Decode_Experiment-10-1,2386442,encoding,-0.711952,0.545455,0.667818,0.171871,11,6,False,0.129535,0.134756,13,7,20,20,1.0,0.131362,1.0,4429.0,3.0,3.0,What is the person on the right wearing?,1.0,4695.0,1.0,1.0,Who is brushing their teeth in the scene?,37.0,2.0,,,,,0.2222222222222222,0.16666666666666666,0.23076923076923078,4.0,1.0,3.0,2.7834357142857145,-3.4953877142857146,1.4946485595039771,0.2866280177038063,-1.426132225284816,-3.0459376478763396,-2.672522571312251,-0.7156897956890432,1.6971978087190673
Encode-Decode_Experiment-10-1,2345035,encoding,-0.090433,0.277778,0.289611,0.130852,18,5,False,0.17469,0.20841,12,14,40,26,0.65,0.167931,0.0,3175.0,2.0,3.0,What are the people doing with the football?,1.0,6623.0,2.0,2.0,Who runs toward the football in the scene?,41.0,1.0,,,,,0.5238095238095238,0.4,0.6,11.0,2.0,9.0,0.3447513913043478,-0.4351843913043478,1.0685480684002406,0.22649541661842373,-0.9920877022885245,-0.3792267495318292,1.1134076649317624,-0.1841265086820433,-1.1519412885461973
Encode-Decode_Experiment-10-1,2371471,encoding,1.413843,0.4,0.1956,0.144571,10,4,False,0.148076,0.373248,31,14,45,45,1.0,0.218129,1.0,7062.0,2.0,2.0,What stunt is one motorcyclist performing?,1.0,4367.0,3.0,3.0,What is nearest to the motorcyclists?,42.0,2.0,,,,,0.4,0.6,0.3333333333333333,8.0,3.0,5.0,1.71239945,-0.29855645,1.2592588814808776,0.22208428258530266,0.058439729495169165,-0.2601669415254392,2.0598902239927654,-0.49742570745082404,0.445895511653094
Encode-Decode_Experiment-10-1,2385851,encoding,-0.674388,0.133333,0.215067,0.121196,15,2,False,0.367904,0.224178,6,13,30,19,0.6333,0.33537,1.0,5412.0,3.0,3.0,Where are the men?,1.0,2633.0,2.0,2.0,What are the men doing with the suitcases?,46.0,2.0,,,,,0.4375,0.2857142857142857,0.5555555555555556,7.0,2.0,5.0,-0.2556475,-0.41874049999999996,0.9287004789022189,0.1880474464204796,-1.399898999169713,-0.3648972754661075,-0.7795574531902444,2.090382824409984,-1.8533932719167425
Encode-Decode_Experiment-10-1,2367132,encoding,2.837132,0.5,0.165167,0.118018,12,6,False,0.105676,0.034278,11,11,22,22,1.0,0.069977,1.0,2315.0,2.0,2.0,How many men are playing in the scene?,0.0,7330.0,1.0,4.0,In which hand(s) are the men holding the controllers?,55.0,1.0,,,,,0.5,0.6,0.4444444444444444,11.0,3.0,8.0,3.1965885,-0.35945649999999985,1.3368010988647756,0.16036901562573305,1.052409012961755,-0.3132362346096994,-2.2939295476878496,-0.9965572182269684,2.1798883086044936
Encode-Decode_Experiment-11-1,2370664,encoding,0.697606,0.153846,0.108385,0.065168,26,4,False,0.15941,0.163214,9,25,34,34,1.0,0.162207,1.0,2788.0,4.0,4.0,How many donuts are in the scene?,1.0,3789.0,1.0,1.0,Where are the people located in the scene?,1.0,2.0,,,,,0.35,0.2857142857142857,0.2857142857142857,7.0,2.0,4.0,1.038118347826087,-0.34051234782608697,1.4548033157376106,0.23544592289673577,-0.44175213433730404,-0.29672799259757937,-0.022371405941441727,-0.36400220407495587,-0.3418737919204743
Encode-Decode_Experiment-11-1,2356125,encoding,1.642844,0.4,0.24756,0.09279,25,10,False,0.290167,0.261904,18,12,37,30,0.8108,0.29884,0.0,2916.0,4.0,2.0,How many uniformed staff are moving the luggage?,1.0,3095.0,1.0,1.0,Where is the luggage being moved to?,2.0,1.0,,,,,0.45,0.42857142857142855,0.46153846153846156,9.0,3.0,6.0,0.6704645,0.9723795,0.986571234976242,0.30458260418244965,0.21836505729797773,0.8473472956857431,0.5455181294951603,1.175265224098542,-0.7714074311168426
Encode-Decode_Experiment-11-1,2344622,encoding,-0.812151,0.16,0.23684,0.094613,25,4,False,0.21429,0.20509,8,22,36,30,0.8333,0.229643,1.0,3551.0,4.0,4.0,What is the cat resting its head on?,1.0,4489.0,2.0,2.0,Where is the cat located?,3.0,2.0,,,,,0.5,0.4,0.5,7.0,2.0,5.0,0.554229,-1.36638,0.9145545251578149,0.2592563250116814,-1.4961072818151964,-1.1906857331721674,0.3562216176829596,0.2820434872315254,-0.9072065193462326
Encode-Decode_Experiment-11-1,2360001,encoding,1.051911,0.214286,0.137321,0.073166,28,6,False,0.150861,0.28008,13,22,35,35,1.0,0.232084,1.0,3527.0,4.0,4.0,What are the workers doing to the clock?,0.0,4447.0,2.0,4.0,Where are the men standing?,5.0,1.0,,,,,0.45,0.42857142857142855,0.5454545454545454,9.0,3.0,6.0,1.3223312173913044,-0.2704202173913044,1.2508420837581216,0.209153195740676,-0.19431940143581408,-0.23564857126797978,0.16692510587075896,-0.4646407721321554,-0.009825075736390581
Encode-Decode_Experiment-11-1,150472,encoding,-0.525739,0.217391,0.272826,0.105442,23,5,False,0.091957,0.093667,11,16,29,27,0.931,0.10335,1.0,4609.0,2.0,2.0,Where is the pizza slice located?,1.0,2436.0,4.0,4.0,How many women are in the scene?,6.0,2.0,,,,,0.4375,0.25,0.6,7.0,1.0,6.0,1.159981142857143,-1.685720142857143,1.574935994014591,0.19108672613439662,-1.296088360558704,-1.46896392235026,-0.968853965002445,-1.158056869083995,-0.19950027905820386
Encode-Decode_Experiment-11-1,2362704,encoding,0.174253,0.153846,0.141192,0.072618,26,4,False,0.206413,0.164435,7,23,30,30,1.0,0.17423,1.0,3273.0,4.0,4.0,What are the bears doing with the pumpkins?,1.0,2147.0,2.0,2.0,How many bears are in the scene?,7.0,2.0,,,,,0.5555555555555556,0.2,0.5714285714285714,5.0,1.0,4.0,0.2900980869565217,-0.11584508695652168,1.023316444275888,0.22674568787335853,-0.8072413683650299,-0.10094929104437966,-0.7795574531902444,0.1893156827413441,-1.2157932864225616
Encode-Decode_Experiment-11-1,2367132,encoding,3.730474,0.35,0.0866,0.070608,20,7,False,0.089679,0.110717,19,14,34,33,0.9706,0.098292,1.0,5518.0,4.0,4.0,In which hand(s) are the men holding the controllers?,1.0,2338.0,2.0,2.0,How many men are playing in the scene?,8.0,2.0,,,,,0.5454545454545454,0.6,0.5,12.0,3.0,9.0,3.1965885,0.5338855000000002,1.3368010988647756,0.16036901562573305,1.6762840711056783,0.4652364993614438,-0.022371405941441727,-1.1848734158186192,2.1798883086044936
Encode-Decode_Experiment-11-1,2386442,encoding,3.655787,0.703704,0.312148,0.107106,27,19,False,0.113722,0.105171,33,4,37,37,1.0,0.112798,0.0,3200.0,4.0,3.0,What is the person on the right wearing?,1.0,4148.0,1.0,1.0,Who is brushing their teeth in the scene?,9.0,1.0,,,,,0.4444444444444444,0.16666666666666666,0.5384615384615384,8.0,1.0,7.0,2.7834357142857145,0.8723512857142857,1.4946485595039771,0.2866280177038063,1.624125596000293,0.7601810844819137,0.5455181294951603,-0.9018399508754389,1.6971978087190673
Encode-Decode_Experiment-11-1,2347400,encoding,1.436542,0.318182,0.179818,0.096317,22,7,False,0.235781,0.188421,14,14,38,28,0.7368,0.237335,1.0,3737.0,3.0,3.0,What are the men doing with the wine?,1.0,2667.0,1.0,1.0,What are the men sitting on in the scene?,11.0,2.0,,,,,0.4,0.125,0.5833333333333334,8.0,1.0,7.0,0.9069372173913043,0.5296047826086957,1.092537588515419,0.14998196139732517,0.07429182191308854,0.4615062126728445,0.734814641307361,0.5350348857713865,-0.4951340085147519
Encode-Decode_Experiment-11-1,2356991,encoding,0.951975,0.241379,0.166828,0.078313,29,7,False,0.12271,0.17492,14,20,37,34,0.9189,0.14964,1.0,6140.0,1.0,1.0,How is the player on the left (from your perspective) reaching the base?,1.0,6431.0,2.0,2.0,What is the current action of the gloved player on the base?,12.0,2.0,,,,,0.375,0.2857142857142857,0.4,6.0,2.0,4.0,0.9167154782608695,0.035259521739130495,1.0576012817561116,0.24617252899464748,-0.2641107890686256,0.030725720146120843,0.5455181294951603,-0.7960334881665713,-0.48370996929647453
Encode-Decode_Experiment-11-1,2371471,encoding,1.885618,0.44,0.25408,0.098599,25,11,False,0.261174,0.606556,21,10,31,31,1.0,0.372587,0.0,4957.0,1.0,3.0,What is nearest to the motorcyclists?,1.0,6247.0,2.0,2.0,What stunt is one motorcyclist performing?,14.0,1.0,,,,,0.35,0.2,0.3333333333333333,7.0,1.0,5.0,1.71239945,0.17321855000000008,1.2592588814808776,0.22208428258530266,0.3879089087746047,0.15094545895414885,-0.5902609413780437,0.8339605096661659,0.445895511653094
Encode-Decode_Experiment-11-1,2408717,encoding,-0.470886,0.16,0.19976,0.084437,25,4,False,0.350207,0.289281,8,19,34,27,0.7941,0.298228,1.0,3767.0,3.0,3.0,What are the surfers doing with the surfboards?,1.0,2533.0,2.0,2.0,How many surfers are in the scene?,16.0,2.0,,,,,0.625,0.14285714285714285,0.8888888888888888,10.0,1.0,8.0,0.5402089565217392,-1.011094956521739,0.743584511970378,0.1829149541037654,-1.257781174101145,-0.881084573554039,-0.022371405941441727,1.882054278508912,-0.9235862752838268
Encode-Decode_Experiment-11-1,2410309,encoding,-0.011677,0.136364,0.137364,0.085637,22,3,False,0.308537,0.292408,7,24,34,31,0.9118,0.315882,1.0,3041.0,4.0,4.0,How many laptops or electronic devices are visible?,1.0,3278.0,2.0,2.0,What is the baby touching?,17.0,2.0,,,,,0.5294117647058824,0.42857142857142855,0.5,9.0,3.0,6.0,0.2498377391304348,-0.2615147391304348,0.9420818502777971,0.23221824527991847,-0.937087596977028,-0.22788819281374867,-0.022371405941441727,1.3915163055362252,-1.26282985035166
Encode-Decode_Experiment-11-1,2349475,encoding,-0.11116,0.173913,0.184609,0.096219,23,4,False,0.062321,0.052886,7,20,35,27,0.7714,0.078727,1.0,4349.0,3.0,3.0,Which part of the blender is the woman holding?,1.0,3378.0,1.0,1.0,What is the man doing to power the blender?,19.0,2.0,,,,,0.6,0.5,0.5384615384615384,12.0,5.0,7.0,1.3563857391304348,-1.4675457391304347,1.2606972161362724,0.15156114020677997,-1.0065626271550918,-1.2788432020083813,0.16692510587075896,-1.5069309599651697,0.02996115998558629
Encode-Decode_Experiment-11-1,2385851,encoding,-1.019643,0.086957,0.172261,0.083661,23,2,False,0.158952,0.177844,5,21,32,26,0.8125,0.207879,1.0,3774.0,3.0,3.0,Where are the men?,1.0,2739.0,2.0,2.0,What are the men doing with the suitcases?,20.0,2.0,,,,,0.4375,0.2857142857142857,0.5555555555555556,7.0,2.0,5.0,-0.2556475,-0.7639955,0.9287004789022189,0.1880474464204796,-1.6410115665845222,-0.6657580922274453,-0.40096442956584305,-0.36939376614890557,-1.8533932719167425
Encode-Decode_Experiment-11-1,2387122,encoding,1.141207,0.47619,0.339095,0.120132,21,10,False,0.139046,0.109506,20,5,28,25,0.8929,0.136233,1.0,5174.0,3.0,3.0,Where is the polar bear located in the scene?,1.0,4770.0,1.0,1.0,What is the polar bear doing next to the enclosure edge?,21.0,2.0,,,,,0.6470588235294118,0.6,0.6666666666666666,11.0,3.0,8.0,0.9558800869565217,0.18532691304347837,0.853273717353023,0.17440004216178429,-0.13195857300502295,0.16149688324895609,-1.1581504768146458,-0.6037265928826304,-0.43795356826812776
Encode-Decode_Experiment-11-1,2345035,encoding,0.405641,0.16129,0.131161,0.074275,31,5,False,0.213296,0.22694,7,27,37,34,0.9189,0.213018,1.0,3135.0,2.0,2.0,Who runs toward the football in the scene?,1.0,4557.0,3.0,3.0,What are the people doing with the football?,22.0,2.0,,,,,0.42857142857142855,0.2,0.4,9.0,1.0,6.0,0.3447513913043478,0.060889608695652186,1.0685480684002406,0.22649541661842373,-0.6456490532675576,0.053060194361999616,0.5455181294951603,0.2703421494553111,-1.1519412885461973
Encode-Decode_Experiment-11-1,2397102,encoding,0.749626,0.3,0.22015,0.10652,20,6,False,0.173613,0.169396,16,12,30,28,0.9333,0.165927,1.0,3272.0,1.0,1.0,What are the couple doing with the cake?,1.0,4218.0,3.0,3.0,What is the man holding besides the cake knife?,23.0,2.0,,,,,0.47619047619047616,0.4,0.3684210526315789,10.0,2.0,7.0,2.353308782608696,-1.6036827826086957,1.1914902426537477,0.2341667244380696,-0.4054234041033657,-1.3974752336729288,-0.7795574531902444,-0.19680491993454138,1.1946762456454432
Encode-Decode_Experiment-11-1,2394020,encoding,1.411591,0.75,0.541625,0.147617,16,12,False,0.284873,,20,0,25,20,0.8,0.280133,1.0,4892.0,2.0,2.0,What are the riders wearing on their heads?,1.0,2807.0,1.0,1.0,Where is the scene taking place?,27.0,2.0,,,,,0.3,0.14285714285714285,0.3333333333333333,6.0,1.0,4.0,1.8759885652173913,-0.4643975652173913,1.0938068118880553,0.2062750763292175,0.0568670209121852,-0.4046835839402209,-1.7260400122512478,1.1129444170690863,0.6370182985019859
Encode-Decode_Experiment-11-1,2374670,encoding,1.722857,0.44,0.25392,0.108007,25,11,False,0.236601,0.256587,19,14,35,33,0.9429,0.242823,1.0,4330.0,1.0,1.0,What vehicle sprays water in the scene?,0.0,6666.0,4.0,3.0,Where is the man standing relative to the vehicle?,29.0,1.0,,,,,0.3684210526315789,0.42857142857142855,0.36363636363636365,7.0,3.0,4.0,1.424489434782609,0.29836756521739116,0.971599913899086,0.195032504795674,0.27424300216933695,0.2600023442568421,0.16692510587075896,0.5446879008382838,0.10952738351124852
Encode-Decode_Experiment-11-1,2385550,encoding,1.638093,0.285714,0.159679,0.076941,28,8,False,0.232533,0.234815,16,16,34,32,0.9412,0.232809,1.0,3325.0,4.0,4.0,Where are the tangerines in the scene?,1.0,5641.0,3.0,3.0,Which side of the frame is the boy on? (from your perspective),30.0,2.0,,,,,0.3333333333333333,0.0,0.42857142857142855,6.0,0.0,6.0,1.690016956521739,-0.05192395652173909,1.298616995458157,0.20640238704947952,0.2150471450076771,-0.04524737938222649,-0.022371405941441727,0.4967995285307988,0.4197458223873526
Encode-Decode_Experiment-11-1,2412687,encoding,0.152419,0.357143,0.334429,0.149025,14,5,False,0.098331,0.218764,12,12,29,24,0.8276,0.141215,1.0,3151.0,4.0,4.0,What is the dog biting onto in the scene?,1.0,5574.0,3.0,3.0,What is the human's body position?,34.0,2.0,,,,,0.4666666666666667,0.5,0.5555555555555556,7.0,2.0,5.0,1.4540098000000001,-1.3015908,1.1010977792178993,0.2802672075044442,-0.8224893786673714,-1.1342273715863436,-0.968853965002445,-1.0830223348932604,0.14401631916963448
Encode-Decode_Experiment-11-1,2409918,encoding,0.354383,0.36,0.32392,0.101811,25,9,False,0.147662,0.187722,21,12,35,33,0.9429,0.172968,1.0,3977.0,4.0,4.0,Where are the elephants in the scene?,1.0,4189.0,2.0,2.0,What is the elephant on the right (from your perspective) doing with its trunk?,35.0,2.0,,,,,0.6875,0.6666666666666666,0.7,11.0,4.0,7.0,2.1433704347826086,-1.7889874347826087,1.3942174989386709,0.136512805433889,-0.6814456325511256,-1.5589527184384473,0.16692510587075896,-0.502299302862648,0.9494031903467851
Encode-Decode_Experiment-11-1,2347025,encoding,0.686526,0.75,0.6718,0.113907,20,15,False,0.137319,0.055183,30,1,32,31,0.9688,0.13769,1.0,4062.0,1.0,1.0,Where is the baby in relation to the mother?,0.0,4582.0,3.0,2.0,Who is holding the umbrella in the scene?,43.0,1.0,,,,,0.6,0.5,0.5833333333333334,9.0,2.0,7.0,0.8661421304347826,-0.17961613043478264,1.2521204182612609,0.17518419943871075,-0.4494899723033178,-0.15652041449398177,-0.40096442956584305,-0.6240567843710834,-0.5427953134769564
Encode-Decode_Experiment-11-1,2348899,encoding,3.835123,0.52,0.19808,0.08394,25,13,False,0.194244,0.172049,21,11,32,32,1.0,0.186614,1.0,3377.0,4.0,4.0,What is the woman doing?,1.0,9406.0,1.0,1.0,Where is the woman located relative to the man? (from your perspective),46.0,2.0,,,,,0.6086956521739131,0.5,0.6470588235294118,14.0,3.0,11.0,3.075954782608696,0.7591682173913039,1.3305228453037807,0.1391916431781664,1.7493668333173547,0.6615515197277274,-0.40096442956584305,0.04606258475467178,2.0389507393467285
Encode-Decode_Experiment-11-1,2379478,encoding,-0.019075,0.285714,0.288429,0.142295,14,4,False,0.4593,0.376932,10,7,18,17,0.9444,0.444714,1.0,2193.0,2.0,2.0,How many babies are visible in the scene?,1.0,5005.0,4.0,4.0,What is the position of the babies?,47.0,2.0,,,,,0.5625,0.8,0.5,9.0,4.0,5.0,2.336707523809524,-2.355782523809524,1.1379797750353307,0.2679417159717664,-0.9422540703770795,-2.052867168398485,-3.0511155949366526,3.166293757402825,1.1752808302311533
Encode-Decode_Experiment-12-1,2348899,encoding,1.566717,0.75,0.496167,0.162016,12,9,False,0.211917,,26,0,26,26,1.0,0.211917,1.0,4705.0,4.0,4.0,What is the woman doing?,1.0,6461.0,1.0,1.0,Where is the woman located relative to the man? (from your perspective),1.0,2.0,,,,,0.43478260869565216,0.16666666666666666,0.5294117647058824,10.0,1.0,9.0,3.075954782608696,-1.509237782608696,1.3305228453037807,0.1391916431781664,0.1652009426013414,-1.3151743261146764,-1.536743500439047,0.2541086033854924,2.0389507393467285
Encode-Decode_Experiment-12-1,2362704,encoding,0.488559,0.166667,0.130375,0.074283,24,4,False,0.241483,0.322712,9,20,30,29,0.9667,0.298547,1.0,4769.0,4.0,4.0,What are the bears doing with the pumpkins?,1.0,1435.0,2.0,2.0,How many bears are in the scene?,3.0,2.0,,,,,0.5555555555555556,0.2,0.5714285714285714,5.0,1.0,4.0,0.2900980869565217,0.19846091304347835,1.023316444275888,0.22674568787335853,-0.5877423701930152,0.1729420642523982,-0.7795574531902444,0.602158656395103,-1.2157932864225616
Encode-Decode_Experiment-12-1,2412687,encoding,1.598289,0.6,0.370667,0.143487,15,9,False,0.115768,0.140906,17,7,31,24,0.7742,0.118383,1.0,4546.0,4.0,4.0,What is the dog biting onto in the scene?,1.0,3800.0,3.0,3.0,What is the human's body position?,4.0,2.0,,,,,0.06666666666666667,0.0,0.1111111111111111,1.0,0.0,1.0,1.4540098000000001,0.14427919999999994,1.1010977792178993,0.2802672075044442,0.1872495906395172,0.12572723915272016,-0.5902609413780437,-0.8777545010865712,0.14401631916963448
Encode-Decode_Experiment-12-1,2379478,encoding,2.782982,0.722222,0.341778,0.136704,18,13,False,0.388866,0.249042,29,4,33,33,1.0,0.371917,1.0,2555.0,2.0,2.0,How many babies are visible in the scene?,1.0,4318.0,4.0,4.0,What is the position of the babies?,5.0,2.0,,,,,0.4375,0.4,0.5,7.0,2.0,5.0,2.336707523809524,0.4462744761904762,1.1379797750353307,0.2679417159717664,1.014592774165758,0.3888908296951669,-0.21166791775364238,2.3371468510347366,1.1752808302311533
Encode-Decode_Experiment-12-1,2374670,encoding,0.249412,0.318182,0.289955,0.113175,22,7,False,0.15559,0.127896,18,14,33,32,0.9697,0.139603,0.0,5477.0,4.0,1.0,What vehicle sprays water in the scene?,1.0,3700.0,3.0,3.0,Where is the man standing relative to the vehicle?,6.0,1.0,,,,,0.3684210526315789,0.2857142857142857,0.45454545454545453,7.0,2.0,5.0,1.424489434782609,-1.175077434782609,0.971599913899086,0.195032504795674,-0.754753266949179,-1.023981569525462,-0.21166791775364238,-0.40897112792318385,0.10952738351124852
Encode-Decode_Experiment-12-1,2347400,encoding,1.382448,0.263158,0.141895,0.087716,19,5,False,0.173668,0.287058,14,13,30,27,0.9,0.223652,1.0,7922.0,3.0,3.0,What are the men doing with the wine?,1.0,2618.0,1.0,1.0,What are the men sitting on in the scene?,7.0,2.0,,,,,0.5,0.375,0.5833333333333334,10.0,3.0,7.0,0.9069372173913043,0.4755107826086956,1.092537588515419,0.14998196139732517,0.036514691323418016,0.41436782214442974,-0.7795574531902444,-0.19615746160688366,-0.4951340085147519
Encode-Decode_Experiment-12-1,2408717,encoding,0.357366,0.217391,0.185,0.090639,23,5,False,0.307717,0.204369,11,19,32,30,0.9375,0.248498,1.0,5172.0,2.0,2.0,How many surfers are in the scene?,1.0,4703.0,3.0,3.0,What are the surfers doing with the surfboards?,8.0,2.0,,,,,0.4375,0.2857142857142857,0.4444444444444444,7.0,2.0,4.0,0.5402089565217392,-0.18284295652173915,0.743584511970378,0.1829149541037654,-0.6793624222034162,-0.15933232317616894,-0.40096442956584305,1.3818632904693282,-0.9235862752838268
Encode-Decode_Experiment-12-1,2410309,encoding,0.27344,0.3,0.26725,0.11977,20,6,False,0.422645,0.22628,14,14,29,28,0.9655,0.320055,1.0,3377.0,4.0,4.0,How many laptops or electronic devices are visible?,1.0,4521.0,2.0,2.0,What is the baby touching?,12.0,2.0,,,,,0.47058823529411764,0.42857142857142855,0.4166666666666667,8.0,3.0,5.0,0.2498377391304348,0.02360226086956521,0.9420818502777971,0.23221824527991847,-0.7379730529918344,0.02056739361524542,-0.968853965002445,2.7347922119429295,-1.26282985035166
Encode-Decode_Experiment-12-1,2371471,encoding,3.127066,0.64,0.30496,0.107142,25,16,False,0.410398,0.467525,25,6,31,31,1.0,0.421455,1.0,14130.0,2.0,2.0,What stunt is one motorcyclist performing?,0.0,7842.0,1.0,3.0,What is nearest to the motorcyclists?,13.0,1.0,,,,,0.35,0.2,0.3333333333333333,7.0,1.0,5.0,1.71239945,1.4146665500000002,1.2592588814808776,0.22208428258530266,1.2548875610518484,1.2327634174101576,-0.5902609413780437,2.590620900327943,0.445895511653094
Encode-Decode_Experiment-12-1,2356991,encoding,-0.476864,0.166667,0.2155,0.102405,24,4,False,0.14828,0.172787,7,23,30,30,1.0,0.167069,1.0,6140.0,1.0,1.0,How is the player on the left (from your perspective) reaching the base?,0.0,10852.0,1.0,2.0,What is the current action of the gloved player on the base?,14.0,1.0,,,,,0.375,0.2857142857142857,0.4,6.0,2.0,4.0,0.9167154782608695,-1.3935794782608695,1.0576012817561116,0.24617252899464748,-1.2619559751264908,-1.214387800470389,-0.7795574531902444,-0.49502422565369375,-0.48370996929647453
Encode-Decode_Experiment-12-1,2349475,encoding,0.903512,0.285714,0.19619,0.099084,21,6,False,0.06314,0.06219,12,15,30,27,0.9,0.073385,1.0,4695.0,1.0,1.0,What is the man doing to power the blender?,1.0,4553.0,3.0,3.0,Which part of the blender is the woman holding?,15.0,2.0,,,,,0.55,0.3,0.6153846153846154,11.0,3.0,8.0,1.3563857391304348,-0.4528737391304348,1.2606972161362724,0.15156114020677997,-0.2979554498400088,-0.3946415346469816,-0.7795574531902444,-1.4972897168678665,0.02996115998558629
Encode-Decode_Experiment-12-1,2370664,encoding,1.792974,0.36,0.20424,0.086872,25,9,False,0.158935,0.098141,17,15,32,32,1.0,0.130438,1.0,3163.0,1.0,1.0,Where are the people located in the scene?,1.0,2855.0,4.0,4.0,How many donuts are in the scene?,16.0,2.0,,,,,0.35,0.2857142857142857,0.2857142857142857,7.0,2.0,4.0,1.038118347826087,0.7548556521739131,1.4548033157376106,0.23544592289673577,0.3232099682941553,0.6577934803260077,-0.40096442956584305,-0.36959388963199996,-0.3418737919204743
Encode-Decode_Experiment-12-1,2394020,encoding,3.928929,0.782609,0.335478,0.113805,23,18,False,0.297217,0.201905,26,2,31,28,0.9032,0.305749,1.0,2564.0,2.0,2.0,What are the riders wearing on their heads?,1.0,6988.0,1.0,1.0,Where is the scene taking place?,17.0,2.0,,,,,0.35,0.14285714285714285,0.5,7.0,1.0,6.0,1.8759885652173913,2.0529404347826086,1.0938068118880553,0.2062750763292175,1.8148772690790775,1.788965651391208,-0.5902609413780437,1.2582576097346698,0.6370182985019859
Encode-Decode_Experiment-12-1,2345035,encoding,-0.513364,0.315789,0.383895,0.132665,19,6,False,0.180412,0.292083,14,13,34,27,0.7941,0.226322,1.0,3588.0,2.0,2.0,Who runs toward the football in the scene?,0.0,8018.0,2.0,3.0,What are the people doing with the football?,18.0,1.0,,,,,0.38095238095238093,0.2,0.4666666666666667,8.0,1.0,7.0,0.3447513913043478,-0.8581153913043478,1.0685480684002406,0.22649541661842373,-1.287446145321392,-0.7477756947858859,-0.022371405941441727,-0.11676729866645165,-1.1519412885461973
Encode-Decode_Experiment-12-1,2369373,encoding,2.49022,0.647059,0.327706,0.128243,17,11,False,0.229375,0.075314,21,2,24,23,0.9583,0.21144,1.0,2801.0,3.0,3.0,What tool is the chef using?,1.0,4471.0,3.0,3.0,What is the appearance of the oven?,20.0,2.0,,,,,0.4,0.25,0.4166666666666667,6.0,1.0,5.0,1.0601126363636364,1.4301073636363635,1.2522767687875571,0.3207464838128501,0.81013926165618,1.2462187932978228,-1.9153365240634483,0.4596236485536511,-0.31617764633970646
Encode-Decode_Experiment-12-1,2360001,encoding,1.04886,0.333333,0.215133,0.112694,15,5,False,0.338907,0.117954,9,14,23,23,1.0,0.204414,1.0,4385.0,4.0,4.0,What are the workers doing to the clock?,1.0,5966.0,4.0,4.0,Where are the men standing?,21.0,2.0,,,,,0.4,0.2857142857142857,0.5454545454545454,8.0,2.0,6.0,1.3223312173913044,-0.27347121739130453,1.2508420837581216,0.209153195740676,-0.19645010031977697,-0.2383072622411413,-2.104633035875649,1.7490310220992324,-0.009825075736390581
Encode-Decode_Experiment-12-1,2344622,encoding,1.079607,0.277778,0.175444,0.094788,18,5,False,0.195878,0.182635,17,15,32,32,1.0,0.18967,1.0,3553.0,4.0,4.0,What is the cat resting its head on?,1.0,2338.0,2.0,2.0,Where is the cat located?,22.0,2.0,,,,,0.42857142857142855,0.4,0.4,6.0,2.0,4.0,0.554229,0.525378,0.9145545251578149,0.2592563250116814,-0.17497759996408874,0.457822925630152,-0.40096442956584305,0.06529798307090334,-0.9072065193462326
Encode-Decode_Experiment-12-1,2385550,encoding,0.806193,0.230769,0.163308,0.083679,26,6,False,0.187256,0.225803,11,21,32,32,1.0,0.212552,1.0,4594.0,3.0,3.0,Which side of the frame is the boy on? (from your perspective),1.0,2877.0,4.0,4.0,Where are the tangerines in the scene?,23.0,2.0,,,,,0.3888888888888889,0.25,0.42857142857142855,7.0,1.0,6.0,1.690016956521739,-0.8838239565217391,1.298616995458157,0.20640238704947952,-0.3659192271878873,-0.7701785562334145,-0.40096442956584305,-0.036199938766641744,0.4197458223873526
Encode-Decode_Experiment-12-1,2409918,encoding,2.437274,0.8125,0.475812,0.138141,16,13,False,0.105191,,29,0,31,29,0.9355,0.116702,0.0,7279.0,3.0,2.0,What is the elephant on the right (from your perspective) doing with its trunk?,1.0,3754.0,4.0,4.0,Where are the elephants in the scene?,25.0,1.0,,,,,0.5625,0.3333333333333333,0.7,9.0,2.0,7.0,2.1433704347826086,0.29390356521739136,1.3942174989386709,0.136512805433889,0.7731638492962013,0.2561123421250191,-0.5902609413780437,-1.0022666234799502,0.9494031903467851
Encode-Decode_Experiment-12-1,2347025,encoding,0.835642,0.722222,0.614611,0.128777,18,13,False,0.083014,0.033475,26,1,28,27,0.9643,0.080254,1.0,3188.0,1.0,1.0,Where is the baby in relation to the mother?,1.0,4422.0,2.0,2.0,Who is holding the umbrella in the scene?,26.0,2.0,,,,,0.4666666666666667,0.5,0.4166666666666667,7.0,2.0,5.0,0.8661421304347826,-0.030500130434782613,1.2521204182612609,0.17518419943871075,-0.3453531991859794,-0.026578309232121265,-1.1581504768146458,-1.2633335931611427,-0.5427953134769564
Encode-Decode_Experiment-12-1,2383555,encoding,0.882377,0.375,0.277958,0.109978,24,9,False,0.206303,0.170577,16,15,32,31,0.9688,0.185409,0.0,2500.0,3.0,2.0,Who is holding the child in the boat?,1.0,5224.0,4.0,4.0,What is the woman at the back doing in the boat?,27.0,1.0,,,,,0.2857142857142857,0.2,0.36363636363636365,6.0,2.0,4.0,0.2628826,0.6194944,0.9892639692971846,0.25163269226245705,-0.31271530592409735,0.5398374858092566,-0.40096442956584305,0.18802076608602833,-1.247589409934006
Encode-Decode_Experiment-12-1,2387122,encoding,0.35523,0.470588,0.420118,0.142078,17,8,False,0.131836,0.071836,19,6,26,25,0.9615,0.122484,1.0,3195.0,3.0,3.0,Where is the polar bear located in the scene?,1.0,6460.0,1.0,1.0,What is the polar bear doing next to the enclosure edge?,32.0,2.0,,,,,0.47058823529411764,0.2,0.5833333333333334,8.0,1.0,7.0,0.9558800869565217,-0.6006500869565217,0.853273717353023,0.17440004216178429,-0.6808541209304385,-0.5234162452376002,-1.536743500439047,-0.6886024936537624,-0.43795356826812776
Encode-Decode_Experiment-12-1,2411268,encoding,3.118175,0.777778,0.384611,0.126089,18,14,False,0.151452,0.139584,24,2,28,26,0.9286,0.14773,1.0,7147.0,2.0,2.0,What is the child holding while picking fruit?,1.0,5309.0,4.0,4.0,Where is the fruit branch relative to the child?,35.0,2.0,,,,,0.6111111111111112,0.3333333333333333,0.6428571428571429,11.0,2.0,9.0,1.9005019047619047,1.2176730952380952,1.2652941490219538,0.27394176700670964,1.2486784349367013,1.0611001201478314,-1.1581504768146458,-0.45768353810223306,0.665657476374515
Encode-Decode_Experiment-12-1,2397102,encoding,1.238677,0.428571,0.28519,0.115753,21,9,False,0.085259,0.18614,19,10,31,29,0.9355,0.118279,1.0,2848.0,3.0,3.0,What is the man holding besides the cake knife?,1.0,2213.0,1.0,1.0,What are the couple doing with the cake?,46.0,2.0,,,,,0.38095238095238093,0.4,0.3157894736842105,8.0,2.0,6.0,2.353308782608696,-1.1146317826086958,1.1914902426537477,0.2341667244380696,-0.06388934317222858,-0.9713082460899859,-0.5902609413780437,-1.2369055214231133,1.1946762456454432
Encode-Decode_Experiment-12-1,2385851,encoding,-1.348958,0.0,0.113294,0.083986,17,0,False,,0.143996,0,21,22,21,0.9545,0.147182,1.0,2616.0,2.0,2.0,What are the men doing with the suitcases?,0.0,5927.0,4.0,3.0,Where are the men?,48.0,1.0,,,,,0.8125,0.5714285714285714,1.0,13.0,4.0,9.0,-0.2556475,-1.0933105,0.9287004789022189,0.1880474464204796,-1.8709922624128457,-0.9527285339929809,-2.2939295476878496,,-1.8533932719167425
Encode-Decode_Experiment-12-1,150472,encoding,0.958904,0.458333,0.354917,0.107849,24,11,False,0.09993,0.108113,18,9,29,27,0.931,0.11259,1.0,1991.0,4.0,4.0,How many women are in the scene?,1.0,4824.0,2.0,2.0,Where is the pizza slice located?,49.0,2.0,,,,,0.625,0.25,0.8,10.0,1.0,8.0,1.159981142857143,-0.20107714285714295,1.574935994014591,0.19108672613439662,-0.259271846896558,-0.17522188942096772,-0.968853965002445,-1.064198955512811,-0.19950027905820386
Encode-Decode_Experiment-13-1,2383555,encoding,-0.941434,0.043478,0.111478,0.07223,23,1,False,0.250284,0.2218,2,24,33,26,0.7879,0.198782,0.0,6222.0,3.0,2.0,Who is holding the child in the boat?,1.0,3642.0,4.0,4.0,What is the woman at the back doing in the boat?,1.0,1.0,,,,,0.3333333333333333,0.2,0.45454545454545453,7.0,2.0,5.0,0.2628826,-1.2043166,0.9892639692971846,0.25163269226245705,-1.5863934646455355,-1.0494610531787731,-0.21166791775364238,0.7057637607899343,-1.247589409934006
Encode-Decode_Experiment-13-1,2362704,encoding,-0.569881,0.074074,0.113481,0.06915,27,2,False,0.357824,0.25117,3,30,33,33,1.0,0.260866,1.0,4661.0,4.0,4.0,What are the bears doing with the pumpkins?,1.0,1935.0,2.0,2.0,How many bears are in the scene?,2.0,2.0,,,,,0.4444444444444444,0.2,0.42857142857142855,4.0,1.0,3.0,0.2900980869565217,-0.8599790869565216,1.023316444275888,0.22674568787335853,-1.3269154041955074,-0.7493997494588307,-0.21166791775364238,1.9717213709047112,-1.2157932864225616
Encode-Decode_Experiment-13-1,2408717,encoding,0.977161,0.291667,0.207042,0.086603,24,7,False,0.27242,0.165683,15,13,38,28,0.7368,0.225013,1.0,5354.0,3.0,3.0,What are the surfers doing with the surfboards?,1.0,3379.0,2.0,2.0,How many surfers are in the scene?,3.0,2.0,,,,,0.375,0.14285714285714285,0.4444444444444444,6.0,1.0,4.0,0.5402089565217392,0.4369520434782608,0.743584511970378,0.1829149541037654,-0.24652187327331676,0.38076711035728694,0.734814641307361,0.9663480797177816,-0.9235862752838268
Encode-Decode_Experiment-13-1,2356991,encoding,1.402613,0.307692,0.182385,0.089339,26,8,False,0.119732,0.180797,14,16,33,30,0.9091,0.156088,1.0,11044.0,2.0,2.0,What is the current action of the gloved player on the base?,1.0,8942.0,1.0,1.0,How is the player on the left (from your perspective) reaching the base?,4.0,2.0,,,,,0.625,0.8571428571428571,0.4,10.0,6.0,4.0,0.9167154782608695,0.4858975217391306,1.0576012817561116,0.24617252899464748,0.05059713740506687,0.423418995388176,-0.21166791775364238,-0.8310904136168391,-0.48370996929647453
Encode-Decode_Experiment-13-1,2349475,encoding,1.996356,0.458333,0.248625,0.105046,24,11,False,0.100344,0.047474,20,8,35,28,0.8,0.095884,1.0,7850.0,3.0,3.0,Which part of the blender is the woman holding?,1.0,3279.0,1.0,1.0,What is the man doing to power the blender?,5.0,2.0,,,,,0.55,0.3,0.5384615384615384,11.0,3.0,7.0,1.3563857391304348,0.6399702608695652,1.2606972161362724,0.15156114020677997,0.4652439900634524,0.5576804836662287,0.16692510587075896,-1.0593253601009873,0.02996115998558629
Encode-Decode_Experiment-13-1,2385851,encoding,-0.567677,0.090909,0.136545,0.080391,22,2,False,0.103798,0.287702,5,23,30,28,0.9333,0.256344,1.0,4739.0,2.0,2.0,What are the men doing with the suitcases?,0.0,5823.0,4.0,3.0,Where are the men?,7.0,1.0,,,,,0.4375,0.42857142857142855,0.4444444444444444,7.0,3.0,4.0,-0.2556475,-0.31202949999999996,0.9287004789022189,0.1880474464204796,-1.3253762169322316,-0.2719075762078227,-0.7795574531902444,-1.0186649771240817,-1.8533932719167425
Encode-Decode_Experiment-13-1,2345035,encoding,0.447078,0.428571,0.371048,0.128666,21,9,False,0.15256,0.144497,16,10,35,26,0.7429,0.163761,0.0,6182.0,2.0,3.0,What are the people doing with the football?,1.0,5894.0,2.0,2.0,Who runs toward the football in the scene?,8.0,1.0,,,,,0.42857142857142855,0.6,0.3333333333333333,9.0,3.0,5.0,0.3447513913043478,0.10232660869565219,1.0685480684002406,0.22649541661842373,-0.616711075668486,0.08916906943734844,0.16692510587075896,-0.4446401957923282,-1.1519412885461973
Encode-Decode_Experiment-13-1,2347025,encoding,0.571459,0.727273,0.664545,0.109767,22,16,False,0.091097,0.035702,26,4,30,30,1.0,0.083711,1.0,3674.0,1.0,1.0,Where is the baby in relation to the mother?,1.0,3658.0,2.0,2.0,Who is holding the umbrella in the scene?,11.0,2.0,,,,,0.4666666666666667,0.75,0.3333333333333333,7.0,3.0,4.0,0.8661421304347826,-0.29468313043478256,1.2521204182612609,0.17518419943871075,-0.5298482576133634,-0.2567916679219606,-0.7795574531902444,-1.1681807629346432,-0.5427953134769564
Encode-Decode_Experiment-13-1,2410309,encoding,0.80925,0.15,0.0894,0.074884,20,3,False,0.2882,0.303889,6,17,23,23,1.0,0.299796,1.0,4719.0,2.0,2.0,What is the baby touching?,1.0,3730.0,4.0,4.0,How many laptops or electronic devices are visible?,12.0,2.0,,,,,0.5882352941176471,0.5714285714285714,0.5,10.0,4.0,6.0,0.2498377391304348,0.5594122608695652,0.9420818502777971,0.23221824527991847,-0.36378433813896094,0.4874809335462888,-2.104633035875649,1.1521097599075827,-1.26282985035166
Encode-Decode_Experiment-13-1,2347400,encoding,-0.285091,0.25,0.2829,0.115402,20,5,False,0.19563,0.194686,11,18,33,29,0.8788,0.201439,1.0,4850.0,3.0,3.0,What are the men doing with the wine?,1.0,2984.0,1.0,1.0,What are the men sitting on in the scene?,13.0,2.0,,,,,0.4,0.25,0.5,8.0,2.0,6.0,0.9069372173913043,-1.1920282173913042,1.092537588515419,0.14998196139732517,-1.1280292242008267,-1.0387527569098471,-0.21166791775364238,0.06237853461164667,-0.4951340085147519
Encode-Decode_Experiment-13-1,2367132,encoding,3.972417,0.461538,0.134923,0.082221,26,12,False,0.095807,0.137473,26,8,36,34,0.9444,0.10363,1.0,3504.0,2.0,2.0,How many men are playing in the scene?,0.0,15044.0,2.0,4.0,In which hand(s) are the men holding the controllers?,15.0,1.0,,,,,0.5454545454545454,0.6,0.5,12.0,3.0,9.0,3.1965885,0.7758285000000003,1.3368010988647756,0.16036901562573305,1.8452475847348542,0.6760695606920207,0.3562216176829596,-1.1127347861479535,2.1798883086044936
Encode-Decode_Experiment-13-1,2397102,encoding,2.18961,0.32,0.14304,0.080818,25,8,False,0.086902,0.131221,15,15,33,30,0.9091,0.109785,1.0,3084.0,1.0,1.0,What are the couple doing with the cake?,1.0,5802.0,3.0,3.0,What is the man holding besides the cake knife?,16.0,2.0,,,,,0.8571428571428571,0.8,0.7368421052631579,18.0,4.0,14.0,2.353308782608696,-0.16369878260869575,1.1914902426537477,0.2341667244380696,0.600205013374285,-0.14264977897058367,-0.21166791775364238,-1.2175641753805377,1.1946762456454432
Encode-Decode_Experiment-13-1,2379478,encoding,3.470931,0.5,0.214687,0.082201,32,16,False,0.359212,0.372775,23,12,35,35,1.0,0.363862,0.0,3873.0,3.0,4.0,What is the position of the babies?,1.0,3325.0,2.0,2.0,How many babies are visible in the scene?,17.0,1.0,,,,,0.625,1.0,0.5,10.0,5.0,5.0,2.336707523809524,1.1342234761904764,1.1379797750353307,0.2679417159717664,1.4950294069167693,0.9883807662062837,0.16692510587075896,1.9880608647008737,1.1752808302311533
Encode-Decode_Experiment-13-1,2394020,encoding,2.328615,0.764706,0.460882,0.130474,17,13,False,0.215258,0.250507,25,1,31,26,0.8387,0.216909,0.0,5040.0,1.0,2.0,What are the riders wearing on their heads?,0.0,10517.0,4.0,1.0,Where is the scene taking place?,19.0,0.0,,,,,0.3,0.14285714285714285,0.3333333333333333,6.0,1.0,4.0,1.8759885652173913,0.4526264347826088,1.0938068118880553,0.2062750763292175,0.6972806601672221,0.3944260296200433,-0.5902609413780437,0.2934387537983015,0.6370182985019859
Encode-Decode_Experiment-13-1,150472,encoding,-0.511376,0.2,0.25465,0.106869,20,4,False,0.068257,0.077041,10,20,31,30,0.9677,0.077114,1.0,3206.0,2.0,2.0,Where is the pizza slice located?,1.0,3176.0,4.0,4.0,How many women are in the scene?,22.0,2.0,,,,,0.625,0.5,0.7,10.0,2.0,7.0,1.159981142857143,-1.671357142857143,1.574935994014591,0.19108672613439662,-1.2860578039968038,-1.4564477707778192,-0.5902609413780437,-1.4370525484565098,-0.19950027905820386
Encode-Decode_Experiment-13-1,2356125,encoding,2.12238,0.454545,0.247909,0.097361,22,10,False,0.293852,0.291583,19,8,33,27,0.8182,0.293749,1.0,6255.0,1.0,1.0,Where is the luggage being moved to?,1.0,5479.0,2.0,2.0,How many uniformed staff are moving the luggage?,24.0,2.0,,,,,0.45,0.5714285714285714,0.38461538461538464,9.0,4.0,5.0,0.6704645,1.4519155000000001,0.986571234976242,0.30458260418244965,0.5532542149577593,1.2652227576673651,-0.21166791775364238,1.2186449320516102,-0.7714074311168426
Encode-Decode_Experiment-13-1,2360001,encoding,0.852272,0.178571,0.120893,0.067676,28,5,False,0.281527,0.329262,12,22,34,34,1.0,0.312414,0.0,6756.0,2.0,4.0,Where are the men standing?,1.0,4500.0,4.0,4.0,What are the workers doing to the clock?,25.0,1.0,,,,,0.45,0.42857142857142855,0.5454545454545454,9.0,3.0,6.0,1.3223312173913044,-0.4700592173913044,1.2508420837581216,0.209153195740676,-0.33373945862868615,-0.409617239636046,-0.022371405941441727,1.073555406808309,-0.009825075736390581
Encode-Decode_Experiment-13-1,2371471,encoding,2.665161,0.521739,0.247565,0.102873,23,12,False,0.265591,0.546979,24,8,32,32,1.0,0.335938,0.0,7127.0,1.0,3.0,What is nearest to the motorcyclists?,1.0,6087.0,2.0,2.0,What stunt is one motorcyclist performing?,26.0,1.0,,,,,0.5,0.6,0.4,10.0,3.0,6.0,1.71239945,0.95276155,1.2592588814808776,0.22208428258530266,0.9323112031374449,0.8302518952999902,-0.40096442956584305,0.8859572993618788,0.445895511653094
Encode-Decode_Experiment-13-1,2348899,encoding,2.057856,0.47619,0.250286,0.109777,21,10,False,0.15063,0.129168,22,8,30,30,1.0,0.144907,1.0,6089.0,4.0,4.0,What is the woman doing?,1.0,6644.0,1.0,1.0,Where is the woman located relative to the man? (from your perspective),27.0,2.0,,,,,0.6086956521739131,0.3333333333333333,0.7058823529411765,14.0,2.0,12.0,3.075954782608696,-1.0180987826086958,1.3305228453037807,0.1391916431781664,0.5081931809397924,-0.8871878214055579,-0.7795574531902444,-0.46736009710831794,2.0389507393467285
Encode-Decode_Experiment-13-1,2369373,encoding,0.563401,0.444444,0.366222,0.138839,18,8,False,0.227792,0.204199,19,7,28,26,0.9286,0.213981,1.0,4028.0,3.0,3.0,What tool is the chef using?,1.0,4322.0,3.0,3.0,What is the appearance of the oven?,28.0,2.0,,,,,0.6,0.5,0.5833333333333334,9.0,2.0,7.0,1.0601126363636364,-0.49671163636363636,1.2522767687875571,0.3207464838128501,-0.5354756491594048,-0.43284259058152447,-1.1581504768146458,0.44098862068670214,-0.31617764633970646
Encode-Decode_Experiment-13-1,2386442,encoding,2.44309,0.695652,0.395913,0.122689,23,16,False,0.127344,0.099366,32,3,35,35,1.0,0.124946,1.0,6171.0,1.0,1.0,Who is brushing their teeth in the scene?,1.0,7296.0,3.0,3.0,What is the person on the right wearing?,29.0,2.0,,,,,0.5,0.6666666666666666,0.38461538461538464,9.0,4.0,5.0,2.7834357142857145,-0.34034571428571425,1.4946485595039771,0.2866280177038063,0.7772255158675314,-0.29658278542300875,0.16692510587075896,-0.7414821810690087,1.6971978087190673
Encode-Decode_Experiment-13-1,2387122,encoding,0.600094,0.461538,0.360231,0.16882,13,6,False,0.156238,0.374332,9,7,19,16,0.8421,0.261716,1.0,7180.0,1.0,1.0,What is the polar bear doing next to the enclosure edge?,1.0,5457.0,3.0,3.0,Where is the polar bear located in the scene?,30.0,2.0,,,,,0.47058823529411764,0.4,0.5,8.0,2.0,6.0,0.9558800869565217,-0.3557860869565217,0.853273717353023,0.17440004216178429,-0.5098506953248432,-0.3100377770461238,-2.861819083124452,-0.40134289162641656,-0.43795356826812776
Encode-Decode_Experiment-13-1,2370664,encoding,-1.017978,0.058824,0.166882,0.106151,17,1,False,0.104568,0.133365,2,24,26,26,1.0,0.13115,1.0,5084.0,4.0,4.0,How many donuts are in the scene?,1.0,3212.0,1.0,1.0,Where are the people located in the scene?,31.0,2.0,,,,,0.15,0.14285714285714285,0.14285714285714285,3.0,1.0,2.0,1.038118347826087,-2.056096347826087,1.4548033157376106,0.23544592289673577,-1.6398487958071384,-1.7917157652951015,-1.536743500439047,-1.0096005605368734,-0.3418737919204743
Encode-Decode_Experiment-13-1,2409918,encoding,-1.778182,0.142857,0.505714,0.204061,7,1,False,0.100713,0.241141,2,7,10,9,0.9,0.217613,1.0,5887.0,4.0,4.0,Where are the elephants in the scene?,0.0,6895.0,4.0,2.0,What is the elephant on the right (from your perspective) doing with its trunk?,36.0,1.0,,,,,0.5,0.16666666666666666,0.7,8.0,1.0,7.0,2.1433704347826086,-3.9215524347826083,1.3942174989386709,0.136512805433889,-2.1707454901316448,-3.4173045097134245,-4.565487689434258,-1.0549815033208838,0.9494031903467851
Encode-Decode_Experiment-13-1,2385550,encoding,3.342677,0.464286,0.199464,0.079224,28,13,False,0.283041,0.31204,23,11,34,34,1.0,0.292423,1.0,4891.0,3.0,3.0,Which side of the frame is the boy on? (from your perspective),1.0,3565.0,4.0,4.0,Where are the tangerines in the scene?,37.0,2.0,,,,,0.6111111111111112,0.75,0.5714285714285714,11.0,3.0,8.0,1.690016956521739,1.652660043478261,1.298616995458157,0.20640238704947952,1.4054618373776782,1.4401548145854444,-0.022371405941441727,1.0913781687732869,0.4197458223873526
Encode-Decode_Experiment-13-1,2374670,encoding,0.226189,0.473684,0.443421,0.133796,19,9,False,0.237692,0.276194,25,7,35,32,0.9143,0.259207,1.0,5496.0,3.0,3.0,Where is the man standing relative to the vehicle?,1.0,4751.0,1.0,1.0,What vehicle sprays water in the scene?,41.0,2.0,,,,,0.47368421052631576,0.5714285714285714,0.36363636363636365,9.0,4.0,4.0,1.424489434782609,-1.198300434782609,0.971599913899086,0.195032504795674,-0.7709713004405813,-1.0442184690566738,0.16692510587075896,0.5575311196650942,0.10952738351124852
Encode-Decode_Experiment-13-1,2344622,encoding,1.476616,0.304348,0.16613,0.093604,23,7,False,0.166774,0.290839,15,13,33,28,0.8485,0.25128,1.0,3713.0,4.0,4.0,What is the cat resting its head on?,1.0,4659.0,2.0,2.0,Where is the cat located?,44.0,2.0,,,,,1.0,1.0,0.9,14.0,5.0,9.0,0.554229,0.922387,0.9145545251578149,0.2592563250116814,0.10227793370460797,0.8037830188991906,-0.21166791775364238,-0.27731341998638204,-0.9072065193462326
Encode-Decode_Experiment-14-1,2369373,encoding,1.436457,0.444444,0.269333,0.121905,18,8,False,0.201006,0.326698,14,8,25,22,0.88,0.222772,0.0,5927.0,2.0,3.0,What is the appearance of the oven?,1.0,4681.0,3.0,3.0,What tool is the chef using?,1.0,1.0,,,,,0.9333333333333333,0.75,0.9166666666666666,14.0,3.0,11.0,1.0601126363636364,0.3763443636363637,1.2522767687875571,0.3207464838128501,0.07423246124277173,0.327952593379277,-1.7260400122512478,0.12566464314779166,-0.31617764633970646
Encode-Decode_Experiment-14-1,2397102,encoding,3.841226,0.37931,0.122724,0.066798,29,11,False,0.11555,0.149194,21,15,37,36,0.973,0.126972,1.0,4256.0,1.0,1.0,What are the couple doing with the cake?,1.0,4480.0,3.0,3.0,What is the man holding besides the cake knife?,2.0,2.0,,,,,0.6666666666666666,0.4,0.631578947368421,14.0,2.0,12.0,2.353308782608696,1.487917217391304,1.1914902426537477,0.2341667244380696,1.7536289294461074,1.2965952391641098,0.5455181294951603,-0.8803207904580146,1.1946762456454432
Encode-Decode_Experiment-14-1,2350974,encoding,2.712301,0.6,0.28845,0.114866,20,12,False,0.287804,0.272957,27,3,33,30,0.9091,0.279347,1.0,12366.0,4.0,4.0,Between which two objects is the child standing?,1.0,3297.0,1.0,1.0,What is the child up against?,3.0,2.0,,,,,0.0,0.0,0.0,0.0,0.0,0.0,1.9402206,0.7720804000000001,1.2691767624466432,0.38083073836292586,0.9652319325343665,0.6728034054522611,-0.21166791775364238,1.147448059948447,0.7120612222094307
Encode-Decode_Experiment-14-1,2362704,encoding,1.405212,0.173913,0.082522,0.065037,23,4,False,0.323391,0.188194,9,19,30,28,0.9333,0.248635,1.0,2038.0,2.0,2.0,How many bears are in the scene?,1.0,3418.0,4.0,4.0,What are the bears doing with the pumpkins?,4.0,2.0,,,,,0.6666666666666666,0.4,0.5714285714285714,6.0,2.0,4.0,0.2900980869565217,1.1151139130434782,1.023316444275888,0.22674568787335853,0.05241217719510913,0.9717283823845918,-0.7795574531902444,1.5663771418821884,-1.2157932864225616
Encode-Decode_Experiment-14-1,2347025,encoding,0.138287,0.684211,0.667737,0.119127,19,13,False,0.144578,0.062884,21,4,29,25,0.8621,0.129955,1.0,6163.0,1.0,1.0,Where is the baby in relation to the mother?,0.0,4779.0,3.0,2.0,Who is holding the umbrella in the scene?,5.0,1.0,,,,,0.5333333333333333,0.75,0.4166666666666667,8.0,3.0,5.0,0.8661421304347826,-0.7278551304347827,1.2521204182612609,0.17518419943871075,-0.8323586138781753,-0.6342647869735087,-0.968853965002445,-0.538604057089856,-0.5427953134769564
Encode-Decode_Experiment-14-1,2408717,encoding,1.009447,0.26087,0.178,0.082094,23,6,False,0.321244,0.267482,12,14,33,26,0.7879,0.264068,1.0,2100.0,2.0,2.0,How many surfers are in the scene?,1.0,4261.0,3.0,3.0,What are the surfers doing with the surfboards?,6.0,2.0,,,,,0.5625,0.14285714285714285,0.7777777777777778,9.0,1.0,7.0,0.5402089565217392,0.4692380434782608,0.743584511970378,0.1829149541037654,-0.22397459560447916,0.40890165534564793,-0.21166791775364238,1.541102723164349,-0.9235862752838268
Encode-Decode_Experiment-14-1,2383555,encoding,-0.84846,0.045455,0.107,0.072538,22,1,False,0.40903,0.212643,2,23,32,25,0.7812,0.213888,1.0,4001.0,2.0,2.0,Who is holding the child in the boat?,1.0,3810.0,4.0,4.0,What is the woman at the back doing in the boat?,7.0,2.0,,,,,0.0,0.0,0.0,0.0,0.0,0.0,0.2628826,-1.1113426,0.9892639692971846,0.25163269226245705,-1.5214640650920912,-0.9684419989215759,-0.40096442956584305,2.574516845923656,-1.247589409934006
Encode-Decode_Experiment-14-1,2347400,encoding,2.033132,0.375,0.195417,0.088328,24,9,False,0.190789,0.219729,20,11,36,31,0.8611,0.205055,1.0,4992.0,3.0,3.0,What are the men doing with the wine?,1.0,2760.0,1.0,1.0,What are the men sitting on in the scene?,8.0,2.0,,,,,0.5,0.375,0.5833333333333334,10.0,3.0,7.0,0.9069372173913043,1.126194782608696,1.092537588515419,0.14998196139732517,0.49092690784667653,0.9813844321675559,0.3562216176829596,0.005390429808172126,-0.4951340085147519
Encode-Decode_Experiment-14-1,2409918,encoding,1.515797,0.45,0.28035,0.111921,20,9,False,0.095327,0.10184,20,11,33,31,0.9394,0.104578,0.0,9799.0,1.0,2.0,What is the elephant on the right (from your perspective) doing with its trunk?,1.0,3591.0,4.0,4.0,Where are the elephants in the scene?,9.0,1.0,,,,,0.625,0.5,0.6,10.0,3.0,6.0,2.1433704347826086,-0.6275734347826085,1.3942174989386709,0.136512805433889,0.12964040927738654,-0.5468776879883384,-0.21166791775364238,-1.1183853315529666,0.9494031903467851
Encode-Decode_Experiment-14-1,2356991,encoding,0.473833,0.2,0.15932,0.085853,25,5,False,0.155579,0.201171,8,24,33,32,0.9697,0.189783,1.0,9904.0,2.0,2.0,What is the current action of the gloved player on the base?,1.0,6912.0,1.0,1.0,How is the player on the left (from your perspective) reaching the base?,10.0,2.0,,,,,0.375,0.2857142857142857,0.4,6.0,2.0,4.0,0.9167154782608695,-0.4428824782608695,1.0576012817561116,0.24617252899464748,-0.5980264317352101,-0.3859349875855545,-0.21166791775364238,-0.4091006195887155,-0.48370996929647453
Encode-Decode_Experiment-14-1,2411268,encoding,2.938451,0.555556,0.221056,0.113835,18,10,False,0.157453,0.178419,16,11,33,27,0.8182,0.164798,1.0,7538.0,2.0,2.0,What is the child holding while picking fruit?,1.0,7174.0,4.0,4.0,Where is the fruit branch relative to the child?,11.0,2.0,,,,,0.6111111111111112,0.3333333333333333,0.6428571428571429,11.0,2.0,9.0,1.9005019047619047,1.0379490952380954,1.2652941490219538,0.27394176700670964,1.1231662336186636,0.9044857063620366,-0.21166791775364238,-0.3870399485699773,0.665657476374515
Encode-Decode_Experiment-14-1,2370664,encoding,0.09714,0.173913,0.166087,0.080565,23,4,False,0.23596,0.091393,12,23,37,35,0.9459,0.147265,1.0,3149.0,4.0,4.0,How many donuts are in the scene?,1.0,5105.0,1.0,1.0,Where are the people located in the scene?,12.0,2.0,,,,,0.35,0.14285714285714285,0.35714285714285715,7.0,1.0,5.0,1.038118347826087,-0.9409783478260869,1.4548033157376106,0.23544592289673577,-0.8610940668373421,-0.8199838214701907,0.5455181294951603,0.5371420683286726,-0.3418737919204743
Encode-Decode_Experiment-14-1,2387122,encoding,0.509501,0.5,0.435455,0.126684,22,11,False,0.114624,0.070043,21,8,34,29,0.8529,0.109765,1.0,9959.0,1.0,1.0,What is the polar bear doing next to the enclosure edge?,1.0,3811.0,3.0,3.0,Where is the polar bear located in the scene?,13.0,2.0,,,,,0.6470588235294118,0.8,0.5833333333333334,11.0,4.0,7.0,0.9558800869565217,-0.44637908695652173,0.853273717353023,0.17440004216178429,-0.5731172977485873,-0.38898198921643234,-0.022371405941441727,-0.891221634301852,-0.43795356826812776
Encode-Decode_Experiment-14-1,2374670,encoding,1.280649,0.478261,0.332348,0.113937,23,11,False,0.249489,0.191983,18,9,32,27,0.8438,0.235517,1.0,11581.0,3.0,3.0,Where is the man standing relative to the vehicle?,1.0,5812.0,1.0,1.0,What vehicle sprays water in the scene?,15.0,2.0,,,,,0.3684210526315789,0.2857142857142857,0.36363636363636365,7.0,2.0,4.0,1.424489434782609,-0.143840434782609,0.971599913899086,0.195032504795674,-0.034577742530574336,-0.12534489201315455,-0.40096442956584305,0.6964050449628814,0.10952738351124852
Encode-Decode_Experiment-14-1,2344622,encoding,0.544709,0.25,0.19535,0.100329,20,5,False,0.154286,0.213588,10,15,31,25,0.8065,0.213326,1.0,4246.0,4.0,4.0,What is the cat resting its head on?,1.0,5657.0,2.0,2.0,Where is the cat located?,16.0,2.0,,,,,0.14285714285714285,0.2,0.1,2.0,1.0,1.0,0.554229,-0.009519999999999973,0.9145545251578149,0.2592563250116814,-0.5485294097425032,-0.008295882682561935,-0.5902609413780437,-0.42432177627346906,-0.9072065193462326
Encode-Decode_Experiment-14-1,2356125,encoding,0.717822,0.296296,0.231481,0.090294,27,8,False,0.280217,0.247689,17,13,36,30,0.8333,0.255928,0.0,6148.0,4.0,2.0,How many uniformed staff are moving the luggage?,1.0,4147.0,1.0,1.0,Where is the luggage being moved to?,17.0,1.0,,,,,0.0,0.0,0.0,0.0,0.0,0.0,0.6704645,0.04735749999999994,0.986571234976242,0.30458260418244965,-0.4276340718534652,0.041268094972629045,0.3562216176829596,1.0581341266404607,-0.7714074311168426
Encode-Decode_Experiment-14-1,2360001,encoding,2.320179,0.269231,0.1145,0.066689,26,7,False,0.371708,0.245339,14,17,32,31,0.9688,0.318284,1.0,4558.0,4.0,4.0,Where are the men standing?,1.0,5194.0,4.0,4.0,What are the workers doing to the clock?,18.0,2.0,,,,,0.4,0.5714285714285714,0.36363636363636365,8.0,4.0,4.0,1.3223312173913044,0.9978477826086956,1.2508420837581216,0.209153195740676,0.6913892882284773,0.8695407709639019,-0.40096442956584305,2.1351633967447112,-0.009825075736390581
Encode-Decode_Experiment-14-1,2367132,encoding,2.619632,0.428571,0.179952,0.094906,21,9,False,0.109982,0.086747,22,8,33,30,0.9091,0.100056,1.0,7143.0,4.0,4.0,In which hand(s) are the men holding the controllers?,1.0,3069.0,2.0,2.0,How many men are playing in the scene?,19.0,2.0,,,,,0.5,0.6,0.4444444444444444,11.0,3.0,8.0,3.1965885,-0.5769564999999997,1.3368010988647756,0.16036901562573305,0.9005155330332356,-0.502769268586299,-0.21166791775364238,-0.9458671171561649,2.1798883086044936
Encode-Decode_Experiment-14-1,2371471,encoding,-0.129305,0.333333,0.347542,0.109883,24,8,False,0.352704,0.488962,19,13,32,32,1.0,0.408059,1.0,9321.0,2.0,2.0,What stunt is one motorcyclist performing?,1.0,5747.0,3.0,3.0,What is nearest to the motorcyclists?,21.0,2.0,,,,,0.5,0.4,0.4666666666666667,10.0,2.0,7.0,1.71239945,-1.84170445,1.2592588814808776,0.22208428258530266,-1.0192343843656804,-1.6048911820538163,-0.40096442956584305,1.9114488865845736,0.445895511653094
Encode-Decode_Experiment-14-1,2349475,encoding,-0.367195,0.068966,0.089241,0.055218,29,2,False,0.111236,0.069909,4,29,35,33,0.9429,0.077785,0.0,6205.0,2.0,1.0,What is the man doing to power the blender?,1.0,3986.0,3.0,3.0,Which part of the blender is the woman holding?,27.0,1.0,,,,,0.4,0.2,0.46153846153846156,8.0,2.0,6.0,1.3563857391304348,-1.7235807391304347,1.2606972161362724,0.15156114020677997,-1.1853674415619813,-1.5019562611081456,0.16692510587075896,-0.9311050672855684,0.02996115998558629
Encode-Decode_Experiment-14-1,2410309,encoding,0.556816,0.291667,0.238125,0.096157,24,7,False,0.138473,0.263642,14,16,32,30,0.9375,0.204776,1.0,3562.0,4.0,4.0,How many laptops or electronic devices are visible?,1.0,4495.0,2.0,2.0,What is the baby touching?,30.0,2.0,,,,,0.29411764705882354,0.14285714285714285,0.3333333333333333,5.0,1.0,4.0,0.2498377391304348,0.30697826086956514,0.9420818502777971,0.23221824527991847,-0.540074355206896,0.2675058443561784,-0.40096442956584305,-0.6104719314598644,-1.26282985035166
Encode-Decode_Experiment-14-1,150472,encoding,1.234119,0.363636,0.240136,0.100071,22,8,False,0.095566,0.081963,18,13,31,31,1.0,0.089862,1.0,2356.0,4.0,4.0,How many women are in the scene?,1.0,3474.0,2.0,2.0,Where is the pizza slice located?,31.0,2.0,,,,,0.375,0.25,0.5,6.0,1.0,5.0,1.159981142857143,0.07413785714285703,1.574935994014591,0.19108672613439662,-0.06707247182286859,0.06460493331866404,-0.5902609413780437,-1.115571830820054,-0.19950027905820386
Encode-Decode_Experiment-14-1,2386442,encoding,3.735814,0.692308,0.293846,0.10666,26,18,False,0.114149,0.106087,26,7,33,33,1.0,0.112439,1.0,5893.0,3.0,3.0,What is the person on the right wearing?,1.0,5111.0,1.0,1.0,Who is brushing their teeth in the scene?,32.0,2.0,,,,,0.0,0.0,0.0,0.0,0.0,0.0,2.7834357142857145,0.9523782857142855,1.4946485595039771,0.2866280177038063,1.6800133179232335,0.8299179125740761,-0.21166791775364238,-0.8968133198588961,1.6971978087190673
Encode-Decode_Experiment-14-1,2394020,encoding,3.142319,0.636364,0.301136,0.106681,22,14,False,0.276657,0.296235,19,8,33,27,0.8182,0.293586,0.0,5297.0,4.0,1.0,Where is the scene taking place?,1.0,4901.0,2.0,2.0,What are the riders wearing on their heads?,33.0,1.0,,,,,0.6,0.2857142857142857,0.75,12.0,2.0,9.0,1.8759885652173913,1.2663304347826088,1.0938068118880553,0.2062750763292175,1.265539658750008,1.1035009164195613,-0.21166791775364238,1.0162259148866146,0.6370182985019859
Encode-Decode_Experiment-14-1,2385851,encoding,0.548615,0.136364,0.0995,0.067194,22,3,False,0.125317,0.240421,6,18,27,24,0.8889,0.226293,1.0,2432.0,2.0,2.0,What are the men doing with the suitcases?,1.0,9734.0,3.0,3.0,Where are the men?,35.0,2.0,,,,,0.8125,0.5714285714285714,1.0,13.0,4.0,9.0,-0.2556475,0.8042625,0.9287004789022189,0.1880474464204796,-0.5458016123512351,0.7008474102924372,-1.3474469886268463,-0.7653439634355945,-1.8533932719167425
Encode-Decode_Experiment-14-1,2385550,encoding,-0.836359,0.095238,0.175429,0.095881,21,2,False,0.368029,0.282615,4,22,27,26,0.963,0.288785,1.0,2935.0,4.0,4.0,Where are the tangerines in the scene?,1.0,6075.0,3.0,3.0,Which side of the frame is the boy on? (from your perspective),36.0,2.0,,,,,0.3888888888888889,0.5,0.35714285714285715,7.0,2.0,5.0,1.690016956521739,-2.526375956521739,1.298616995458157,0.20640238704947952,-1.5130132007214472,-2.2015250574947105,-1.3474469886268463,2.0918543206092055,0.4197458223873526
Encode-Decode_Experiment-14-1,2345035,encoding,-0.717731,0.1,0.1709,0.098784,20,2,False,0.109165,0.162186,5,19,33,24,0.7273,0.143989,0.0,7745.0,4.0,3.0,What are the people doing with the football?,1.0,5836.0,2.0,2.0,Who runs toward the football in the scene?,44.0,1.0,,,,,0.47619047619047616,0.2,0.5333333333333333,10.0,1.0,8.0,0.3447513913043478,-1.0624823913043477,1.0685480684002406,0.22649541661842373,-1.4301680525055376,-0.9258644191752917,-0.21166791775364238,-0.9554848163142806,-1.1519412885461973
Encode-Decode_Experiment-14-1,2379478,encoding,2.698042,0.521739,0.234739,0.106373,23,12,False,0.344475,0.329327,20,8,33,28,0.8485,0.350471,0.0,3323.0,3.0,4.0,What is the position of the babies?,1.0,1994.0,2.0,2.0,How many babies are visible in the scene?,45.0,1.0,,,,,0.5625,0.8,0.5,9.0,4.0,5.0,2.336707523809524,0.3613344761904762,1.1379797750353307,0.2679417159717664,0.9552740054985008,0.3148727335757536,-0.21166791775364238,1.8145773487973822,1.1752808302311533
Encode-Decode_Experiment-14-1,2412687,encoding,-0.388971,0.375,0.430187,0.141881,16,6,False,0.136834,0.129977,12,11,28,23,0.8214,0.129204,1.0,2710.0,4.0,4.0,What is the dog biting onto in the scene?,1.0,7457.0,3.0,3.0,What is the human's body position?,46.0,2.0,,,,,0.0,0.0,0.0,0.0,0.0,0.0,1.4540098000000001,-1.8429808,1.1010977792178993,0.2802672075044442,-1.200574946936342,-1.606003414182166,-1.1581504768146458,-0.6297661896240649,0.14401631916963448
Encode-Decode_Experiment-14-1,2348899,encoding,4.824092,0.730769,0.279808,0.093481,26,19,False,0.204805,0.124355,31,1,32,32,1.0,0.202291,1.0,4351.0,1.0,1.0,Where is the woman located relative to the man? (from your perspective),1.0,4085.0,4.0,4.0,What is the woman doing?,58.0,2.0,,,,,0.5652173913043478,0.3333333333333333,0.6470588235294118,13.0,2.0,11.0,3.075954782608696,1.7481372173913043,1.3305228453037807,0.1391916431781664,2.440024042289437,1.5233551752624586,-0.40096442956584305,0.1703863556345504,2.0389507393467285
Encode-Decode_Experiment-15-1,2347025,encoding,-0.104589,0.785714,0.798929,0.126345,14,11,False,0.067175,0.083575,42,2,49,44,0.898,0.079173,1.0,6200.0,2.0,2.0,Who is holding the umbrella in the scene?,1.0,2622.0,1.0,1.0,Where is the baby in relation to the mother?,1.0,2.0,,,,,0.6,0.5,0.5833333333333334,9.0,2.0,7.0,0.8661421304347826,-0.9707311304347827,1.2521204182612609,0.17518419943871075,-1.0019736981591825,-0.8459108796636267,2.8170762712415685,-1.4497898195569763,-0.5427953134769564
Encode-Decode_Experiment-15-1,2374670,encoding,0.823044,0.416667,0.323792,0.112843,24,10,False,0.230862,0.247911,25,9,35,34,0.9714,0.242316,1.0,7792.0,1.0,1.0,What vehicle sprays water in the scene?,0.0,4486.0,2.0,3.0,Where is the man standing relative to the vehicle?,2.0,1.0,,,,,0.42105263157894735,0.42857142857142855,0.36363636363636365,8.0,3.0,4.0,1.424489434782609,-0.6014454347826089,0.971599913899086,0.195032504795674,-0.35415114888777016,-0.5241093242561979,0.16692510587075896,0.4771285673395977,0.10952738351124852
Encode-Decode_Experiment-15-1,2369373,encoding,1.50858,0.4375,0.250875,0.123709,16,7,False,0.185941,0.287374,21,10,37,31,0.8378,0.191001,1.0,4360.0,3.0,3.0,What tool is the chef using?,1.0,3235.0,3.0,3.0,What is the appearance of the oven?,3.0,2.0,,,,,0.6666666666666666,0.5,0.6666666666666666,10.0,2.0,8.0,1.0601126363636364,0.44846736363636364,1.2522767687875571,0.3207464838128501,0.1246003391870687,0.39080174744591745,0.5455181294951603,-0.05168007878245861,-0.31617764633970646
Encode-Decode_Experiment-15-1,2371471,encoding,0.760647,0.45,0.35825,0.120621,20,9,False,0.214091,0.578966,21,17,38,38,1.0,0.377325,1.0,5313.0,2.0,2.0,What stunt is one motorcyclist performing?,1.0,8140.0,3.0,3.0,What is nearest to the motorcyclists?,4.0,2.0,,,,,0.5,0.4,0.4666666666666667,10.0,2.0,7.0,1.71239945,-0.95175245,1.2592588814808776,0.22208428258530266,-0.39772676942616014,-0.8293725491639636,0.734814641307361,0.2797008652823637,0.445895511653094
Encode-Decode_Experiment-15-1,2349475,encoding,0.74524,0.285714,0.209952,0.101661,21,6,False,0.088462,0.044051,16,19,37,35,0.9459,0.068249,1.0,4076.0,3.0,3.0,Which part of the blender is the woman holding?,1.0,4491.0,1.0,1.0,What is the man doing to power the blender?,5.0,2.0,,,,,0.7,0.7,0.5384615384615384,14.0,7.0,7.0,1.3563857391304348,-0.6111457391304348,1.2606972161362724,0.15156114020677997,-0.40848641469171737,-0.5325623270770707,0.5455181294951603,-1.1991999028142457,0.02996115998558629
Encode-Decode_Experiment-15-1,2356125,encoding,0.744871,0.28,0.216,0.085921,25,7,False,0.289355,0.192174,15,25,45,40,0.8889,0.230506,1.0,7624.0,1.0,1.0,Where is the luggage being moved to?,1.0,5413.0,2.0,2.0,How many uniformed staff are moving the luggage?,6.0,2.0,,,,,0.5,0.42857142857142855,0.5384615384615384,10.0,3.0,7.0,0.6704645,0.07440649999999993,0.986571234976242,0.30458260418244965,-0.40874410983697546,0.06483903306933271,2.0598902239927654,1.1657063847883946,-0.7714074311168426
Encode-Decode_Experiment-15-1,2386442,encoding,5.329251,0.708333,0.202167,0.094979,24,17,False,0.119667,0.143727,49,4,53,53,1.0,0.121483,1.0,4191.0,3.0,3.0,What is the person on the right wearing?,1.0,2598.0,1.0,1.0,Who is brushing their teeth in the scene?,7.0,2.0,,,,,0.4444444444444444,0.3333333333333333,0.46153846153846156,8.0,2.0,6.0,2.7834357142857145,2.5458152857142857,1.4946485595039771,0.2866280177038063,2.792807299426039,2.218464804806588,3.574262318490371,-0.8318555916404348,1.6971978087190673
Encode-Decode_Experiment-15-1,2385550,encoding,-0.241808,0.076923,0.098077,0.087482,13,1,False,0.219235,0.15114,7,30,38,37,0.9737,0.176826,1.0,3406.0,4.0,4.0,Where are the tangerines in the scene?,1.0,3460.0,3.0,3.0,Which side of the frame is the boy on? (from your perspective),9.0,2.0,,,,,0.7222222222222222,0.5,0.7857142857142857,13.0,2.0,11.0,1.690016956521739,-1.9318249565217391,1.298616995458157,0.20640238704947952,-1.0978020725146378,-1.6834236557300148,0.734814641307361,0.34025587687275266,0.4197458223873526
Encode-Decode_Experiment-15-1,2362704,encoding,-0.729997,0.190476,0.26981,0.108676,21,4,False,0.178577,0.16486,13,21,34,34,1.0,0.170104,1.0,1438.0,2.0,2.0,How many bears are in the scene?,1.0,2827.0,4.0,4.0,What are the bears doing with the pumpkins?,11.0,2.0,,,,,0.4444444444444444,0.2,0.42857142857142855,4.0,1.0,3.0,0.2900980869565217,-1.0200950869565217,1.023316444275888,0.22674568787335853,-1.4387341464126788,-0.8889274334505424,-0.022371405941441727,-0.13836886287103214,-1.2157932864225616
Encode-Decode_Experiment-15-1,2410309,encoding,0.413012,0.25,0.201,0.11864,16,4,False,0.325309,0.279604,6,23,30,29,0.9667,0.288897,1.0,4005.0,2.0,2.0,What is the baby touching?,1.0,3441.0,4.0,4.0,How many laptops or electronic devices are visible?,12.0,2.0,,,,,0.5882352941176471,0.2857142857142857,0.6666666666666666,10.0,2.0,8.0,0.2498377391304348,0.16317426086956519,0.9420818502777971,0.23221824527991847,-0.6405014356098422,0.14219270220458788,-0.7795574531902444,1.588955779563053,-1.26282985035166
Encode-Decode_Experiment-15-1,2412687,encoding,2.720342,0.647059,0.313882,0.122476,17,11,False,0.14633,0.40504,30,2,35,32,0.9143,0.15471,1.0,3573.0,4.0,4.0,What is the dog biting onto in the scene?,1.0,4651.0,3.0,3.0,What is the human's body position?,13.0,2.0,,,,,0.6,1.0,0.5555555555555556,9.0,4.0,5.0,1.4540098000000001,1.2663322,1.1010977792178993,0.2802672075044442,0.9708474519463445,1.1035024546586776,0.16692510587075896,-0.517979566361559,0.14401631916963448
Encode-Decode_Experiment-15-1,2409918,encoding,2.357866,0.521739,0.277652,0.10352,23,12,False,0.12614,0.121713,23,9,39,32,0.8205,0.14756,0.0,6143.0,4.0,2.0,What is the elephant on the right (from your perspective) doing with its trunk?,1.0,5553.0,4.0,4.0,Where are the elephants in the scene?,14.0,1.0,,,,,0.6875,0.5,0.8,11.0,3.0,8.0,2.1433704347826086,0.21449556521739144,1.3942174989386709,0.136512805433889,0.717708412725333,0.1869149206904728,0.9241111531195616,-0.7556556324599162,0.9494031903467851
Encode-Decode_Experiment-15-1,2344622,encoding,1.846181,0.388889,0.193167,0.106015,18,7,False,0.164272,0.119036,15,16,35,31,0.8857,0.154646,1.0,5472.0,2.0,2.0,Where is the cat located?,1.0,3186.0,4.0,4.0,What is the cat resting its head on?,15.0,2.0,,,,,0.7142857142857143,0.8,0.6,10.0,4.0,6.0,0.554229,1.2919520000000002,0.9145545251578149,0.2592563250116814,0.36036765283004835,1.1258279646534994,0.16692510587075896,-0.3067668879100121,-0.9072065193462326
Encode-Decode_Experiment-15-1,150472,encoding,1.306447,0.423077,0.290346,0.101597,26,11,False,0.069874,0.099435,27,12,39,39,1.0,0.07897,1.0,4101.0,2.0,2.0,Where is the pizza slice located?,1.0,2987.0,4.0,4.0,How many women are in the scene?,16.0,2.0,,,,,0.5,0.25,0.7,8.0,1.0,7.0,1.159981142857143,0.14646585714285698,1.574935994014591,0.19108672613439662,-0.016561429908983807,0.12763272771617898,0.9241111531195616,-1.4180172736233723,-0.19950027905820386
Encode-Decode_Experiment-15-1,2385851,encoding,-1.46333,0.05,0.19455,0.098782,20,1,False,0.317342,0.201548,3,28,37,31,0.8378,0.242951,1.0,5086.0,3.0,3.0,Where are the men?,1.0,2998.0,2.0,2.0,What are the men doing with the suitcases?,21.0,2.0,,,,,0.6875,0.5714285714285714,0.7777777777777778,11.0,4.0,7.0,-0.2556475,-1.2076825,0.9287004789022189,0.1880474464204796,-1.9508651869479472,-1.0523941531284826,0.5455181294951603,1.4951684978094317,-1.8533932719167425
Encode-Decode_Experiment-15-1,2383555,encoding,1.462279,0.1,0.0349,0.04452,20,2,False,0.168497,0.179873,10,35,49,45,0.9184,0.184244,1.0,3426.0,2.0,2.0,Who is holding the child in the boat?,1.0,5662.0,4.0,4.0,What is the woman at the back doing in the boat?,22.0,2.0,,,,,0.5238095238095238,0.3,0.7272727272727273,11.0,3.0,8.0,0.2628826,1.1993964000000001,0.9892639692971846,0.25163269226245705,0.09226553452421646,1.0451735109545357,2.8170762712415685,-0.25703031637630425,-1.247589409934006
Encode-Decode_Experiment-15-1,2397102,encoding,2.239179,0.6,0.33215,0.11962,20,12,False,0.108911,0.125918,31,4,35,35,1.0,0.110855,1.0,2329.0,1.0,1.0,What are the couple doing with the cake?,1.0,3435.0,3.0,3.0,What is the man holding besides the cake knife?,23.0,2.0,,,,,0.7619047619047619,1.0,0.5789473684210527,16.0,5.0,11.0,2.353308782608696,-0.11412978260869577,1.1914902426537477,0.2341667244380696,0.6348220612206149,-0.09945454696513048,0.16692510587075896,-0.9584748965911001,1.1946762456454432
Encode-Decode_Experiment-15-1,2348899,encoding,2.156522,0.5,0.255389,0.113428,18,9,False,0.190768,0.093918,20,14,34,34,1.0,0.150888,1.0,4196.0,1.0,1.0,Where is the woman located relative to the man? (from your perspective),1.0,2770.0,4.0,4.0,What is the woman doing?,25.0,2.0,,,,,0.6521739130434783,0.6666666666666666,0.6470588235294118,15.0,4.0,11.0,3.075954782608696,-0.9194327826086961,1.3305228453037807,0.1391916431781664,0.5770976503219867,-0.8012086658637871,-0.022371405941441727,0.005143218446702889,2.0389507393467285
Encode-Decode_Experiment-15-1,2360001,encoding,0.797404,0.217391,0.152087,0.081896,23,5,False,0.413988,0.240979,12,21,33,33,1.0,0.303891,0.0,3772.0,1.0,4.0,What are the workers doing to the clock?,0.0,4063.0,1.0,4.0,Where are the men standing?,26.0,0.0,,,,,0.65,0.5714285714285714,0.8181818181818182,13.0,4.0,9.0,1.3223312173913044,-0.5249272173913044,1.2508420837581216,0.209153195740676,-0.37205712049865397,-0.457430106340543,-0.21166791775364238,2.6328822711696027,-0.009825075736390581
Encode-Decode_Experiment-15-1,2370664,encoding,1.268825,0.238095,0.139095,0.078025,21,5,False,0.199412,0.103866,10,31,41,41,1.0,0.12717,1.0,2589.0,1.0,1.0,Where are the people located in the scene?,1.0,2830.0,4.0,4.0,How many donuts are in the scene?,27.0,2.0,,,,,0.65,0.7142857142857143,0.5714285714285714,13.0,5.0,8.0,1.038118347826087,0.23070665217391317,1.4548033157376106,0.23544592289673577,-0.042835160952067616,0.20104152526485464,1.3027041767439629,0.10690012361531133,-0.3418737919204743
Encode-Decode_Experiment-15-1,2350974,encoding,1.187243,0.409091,0.278227,0.110225,22,9,False,0.187802,0.212155,21,20,45,41,0.9111,0.192998,1.0,4588.0,4.0,4.0,Between which two objects is the child standing?,1.0,2251.0,1.0,1.0,What is the child up against?,28.0,2.0,,,,,0.75,0.5,0.7,9.0,2.0,7.0,1.9402206,-0.7529775999999999,1.2691767624466432,0.38083073836292586,-0.09980883396139392,-0.656156915146752,2.0598902239927654,-0.029772443368439618,0.7120612222094307
Encode-Decode_Experiment-15-1,2356991,encoding,-0.764326,0.173913,0.254956,0.106033,23,4,False,0.077566,0.240647,14,28,42,42,1.0,0.186287,1.0,5553.0,2.0,2.0,What is the current action of the gloved player on the base?,1.0,12279.0,1.0,1.0,How is the player on the left (from your perspective) reaching the base?,30.0,2.0,,,,,0.5,0.5714285714285714,0.4,8.0,4.0,4.0,0.9167154782608695,-1.6810414782608696,1.0576012817561116,0.24617252899464748,-1.4627081752516036,-1.4648868580013377,1.4920006885561636,-1.3274672835080397,-0.48370996929647453
Encode-Decode_Experiment-15-1,2387122,encoding,1.388081,0.555556,0.360833,0.140282,18,10,False,0.127178,0.047365,25,3,31,28,0.9032,0.128996,1.0,2723.0,3.0,3.0,Where is the polar bear located in the scene?,1.0,9753.0,1.0,1.0,What is the polar bear doing next to the enclosure edge?,33.0,2.0,,,,,0.6470588235294118,0.4,0.75,11.0,2.0,9.0,0.9558800869565217,0.4322009130434782,0.853273717353023,0.17440004216178429,0.04044855786335986,0.3766268980992506,-0.5902609413780437,-0.7434363280215756,-0.43795356826812776
Encode-Decode_Experiment-15-1,2394020,encoding,1.790214,0.652174,0.444565,0.115969,23,15,False,0.29277,0.351148,26,5,36,31,0.8611,0.309275,1.0,2942.0,2.0,2.0,What are the riders wearing on their heads?,1.0,2465.0,1.0,1.0,Where is the scene taking place?,34.0,2.0,,,,,0.35,0.2857142857142857,0.3333333333333333,7.0,2.0,4.0,1.8759885652173913,-0.08577456521739135,1.0938068118880553,0.2062750763292175,0.3212824924109244,-0.07474534981000416,0.3562216176829596,1.205907660951143,0.6370182985019859
Encode-Decode_Experiment-15-1,2345035,encoding,0.752731,0.473684,0.376526,0.129074,19,9,False,0.20552,0.219194,19,7,30,26,0.8667,0.19444,1.0,5744.0,2.0,2.0,Who runs toward the football in the scene?,0.0,3747.0,2.0,3.0,What are the people doing with the football?,39.0,1.0,,,,,0.47619047619047616,0.6,0.4666666666666667,10.0,3.0,7.0,0.3447513913043478,0.40797960869565225,1.0685480684002406,0.22649541661842373,-0.40325499373473095,0.3555200599387262,-0.7795574531902444,0.1788033138941012,-1.1519412885461973
Encode-Decode_Experiment-15-1,2411268,encoding,3.119016,0.619048,0.248667,0.118749,21,13,False,0.169197,0.11267,24,10,39,34,0.8718,0.173714,1.0,5627.0,4.0,4.0,Where is the fruit branch relative to the child?,1.0,3900.0,2.0,2.0,What is the child holding while picking fruit?,43.0,2.0,,,,,0.8888888888888888,0.8333333333333334,0.7142857142857143,16.0,5.0,10.0,1.9005019047619047,1.218514095238095,1.2652941490219538,0.27394176700670964,1.2492657563924248,1.0618329812125409,0.9241111531195616,-0.2487899376606606,0.665657476374515
Encode-Decode_Experiment-15-1,2367132,encoding,1.733934,0.266667,0.1365,0.07507,30,8,False,0.11272,0.088811,17,25,49,42,0.8571,0.093946,1.0,3457.0,4.0,4.0,In which hand(s) are the men holding the controllers?,1.0,2026.0,2.0,2.0,How many men are playing in the scene?,44.0,2.0,,,,,0.2727272727272727,0.4,0.2222222222222222,6.0,2.0,4.0,3.1965885,-1.4626544999999997,1.3368010988647756,0.16036901562573305,0.28197874505286896,-1.2745808967564438,2.8170762712415685,-0.9136354644084034,2.1798883086044936
Encode-Decode_Experiment-15-1,2347400,encoding,-0.862426,0.272727,0.374,0.117428,22,6,False,0.263116,0.350251,23,15,42,38,0.9048,0.283332,1.0,2560.0,3.0,3.0,What are the men doing with the wine?,1.0,2462.0,1.0,1.0,What are the men sitting on in the scene?,48.0,2.0,,,,,0.6,0.5,0.5833333333333334,12.0,4.0,7.0,0.9069372173913043,-1.7693632173913043,1.092537588515419,0.14998196139732517,-1.5312173724055702,-1.5418518565460784,1.4920006885561636,0.8568216746172808,-0.4951340085147519
Encode-Decode_Experiment-15-1,2408717,encoding,0.567745,0.368421,0.304421,0.112727,19,7,False,0.182601,0.196408,19,8,40,27,0.675,0.200389,1.0,3120.0,2.0,2.0,How many surfers are in the scene?,1.0,2779.0,3.0,3.0,What are the surfers doing with the surfboards?,53.0,2.0,,,,,0.5,0.2857142857142857,0.5555555555555556,8.0,2.0,5.0,0.5402089565217392,0.027536043478260885,0.743584511970378,0.1829149541037654,-0.5324419697257979,0.023995355697224614,1.1134076649317624,-0.09099845722567354,-0.9235862752838268
Encode-Decode_Experiment-16-1,2412687,encoding,3.53271,0.666667,0.292619,0.105881,21,14,False,0.210374,0.365635,25,3,29,28,0.9655,0.220226,1.0,7704.0,3.0,3.0,What is the human's body position?,1.0,5853.0,4.0,4.0,What is the dog biting onto in the scene?,1.0,2.0,,,,,0.8666666666666667,0.75,1.0,13.0,3.0,9.0,1.4540098000000001,2.0787001999999997,1.1010977792178993,0.2802672075044442,1.538173440463914,1.8114131293506426,-0.968853965002445,0.23594445430229466,0.14401631916963448
Encode-Decode_Experiment-16-1,2410309,encoding,0.272189,0.208333,0.18325,0.092154,24,5,False,0.311754,0.239212,12,21,36,33,0.9167,0.272183,1.0,3780.0,4.0,4.0,How many laptops or electronic devices are visible?,1.0,4614.0,2.0,2.0,What is the baby touching?,2.0,2.0,,,,,0.7647058823529411,0.8571428571428571,0.5833333333333334,13.0,6.0,7.0,0.2498377391304348,0.02235126086956521,0.9420818502777971,0.23221824527991847,-0.7388467023867334,0.019477251888786906,0.3562216176829596,1.4293867317194053,-1.26282985035166
Encode-Decode_Experiment-16-1,2397102,encoding,3.126477,0.407407,0.154037,0.08104,27,11,False,0.146453,0.106747,16,18,34,34,1.0,0.125432,1.0,3428.0,1.0,1.0,What are the couple doing with the cake?,1.0,3456.0,3.0,3.0,What is the man holding besides the cake knife?,3.0,2.0,,,,,0.3333333333333333,0.2,0.3157894736842105,7.0,1.0,6.0,2.353308782608696,0.7731682173913041,1.1914902426537477,0.2341667244380696,1.2544762265245937,0.6737513472020834,-0.022371405941441727,-0.5165316141015243,1.1946762456454432
Encode-Decode_Experiment-16-1,2344622,encoding,1.83324,0.421053,0.224947,0.106972,19,8,False,0.128648,0.113702,21,8,38,29,0.7632,0.108927,1.0,3963.0,4.0,4.0,What is the cat resting its head on?,1.0,5492.0,2.0,2.0,Where is the cat located?,4.0,2.0,,,,,0.8571428571428571,0.8,0.8,12.0,4.0,8.0,0.554229,1.2790110000000001,0.9145545251578149,0.2592563250116814,0.3513301653645082,1.1145509669859537,0.734814641307361,-0.7261315327187234,-0.9072065193462326
