SubjectID,StimID,Phase,svg_z_enc,svg_obs,svg_null_mean,svg_null_std,n_transitions,n_relational,low_n_enc,mean_salience_relational_enc,mean_salience_nonrelational,n_relational_fixations,n_nonrelational_fixations,n_fixations_enc,n_aoi,aoi_prop_enc,mean_salience_enc,enc_q1_accuracy,enc_q1_rt_ms,enc_q1_response,enc_q1_correct_key,enc_q1_question,enc_q2_accuracy,enc_q2_rt_ms,enc_q2_response,enc_q2_correct_key,enc_q2_question,enc_trial_index,enc_total_correct,dec_free_response,dec_rt_ms,dec_trial_index,dec_cue_question,prop_total,prop_relations,prop_objects,n_total_recalled,n_relations_recalled,n_objects_recalled,svg_z_enc_image_mean,svg_z_enc_within,svg_z_enc_within_sd,prop_total_image_sd,svg_z_enc_z,svg_z_enc_within_z,n_fixations_enc_z,aoi_prop_enc_z,mean_salience_relational_enc_z,enc_total_correct_z,svg_z_enc_image_mean_z,svg_z_enc_within_sd_z,prop_total_image_sd_z
Encode-Decode_Experiment-1-1,2387122,encoding,-0.330065,0.347826,0.387522,0.120266,23,8,False,0.316857,0.346243,16,13,33,29,0.8788,0.308556,1.0,7463.0,1.0,1.0,What is the polar bear doing next to the enclosure edge?,1.0,5668.0,3.0,3.0,Where is the polar bear located in the scene?,2.0,2.0,,,,,0.6470588235294118,0.4,0.6666666666666666,11.0,2.0,8.0,0.8190727894736842,-1.1491377894736843,0.8482144860695828,0.18033698569591206,-1.1300029018995372,-1.0065341722839527,-0.21177022516834185,-0.33985184913035144,1.477850630636589,0.5402516599634183,-0.5468140480155639,-1.5381610398114771,-0.7076212553274387
Encode-Decode_Experiment-1-1,2374670,encoding,-0.476733,0.3,0.35995,0.125752,20,6,False,0.196744,0.192463,22,14,39,36,0.9231,0.212175,0.0,6044.0,4.0,1.0,What vehicle sprays water in the scene?,1.0,9310.0,3.0,3.0,Where is the man standing relative to the vehicle?,3.0,1.0,,,,,0.21052631578947367,0.14285714285714285,0.2727272727272727,4.0,1.0,3.0,1.2780294736842106,-1.7547624736842107,0.952351037069395,0.18321268886084818,-1.2316148150236041,-1.5370031428638573,0.8997685168870005,0.15072332078652267,0.07328589947306065,-1.6247274185664562,-0.02674853061189013,-1.019047590048775,-0.6594575761467123
Encode-Decode_Experiment-1-1,2356991,encoding,2.017518,0.321429,0.158786,0.080615,28,9,False,0.148569,0.176891,13,20,37,33,0.8919,0.161358,1.0,10953.0,1.0,1.0,How is the player on the left (from your perspective) reaching the base?,1.0,6687.0,2.0,2.0,What is the current action of the gloved player on the base?,4.0,2.0,,,,,0.7333333333333333,0.5714285714285714,0.5,11.0,4.0,5.0,0.8878508947368422,1.1296671052631577,0.9251084568846146,0.2485042976789582,0.49640776605486414,0.9894797257283133,0.5292556028685531,-0.1947833451594474,-0.4900578345424329,0.5402516599634183,-0.46887832525502326,-1.1548499538142492,0.4340781331895421
Encode-Decode_Experiment-1-1,2412687,encoding,2.830765,0.666667,0.3048,0.127834,15,10,False,0.144164,0.08408,17,9,29,26,0.8966,0.127853,1.0,9147.0,3.0,3.0,What is the human's body position?,1.0,5930.0,4.0,4.0,What is the dog biting onto in the scene?,5.0,2.0,,,,,0.4666666666666667,0.5,0.4444444444444444,7.0,2.0,4.0,1.430236875,1.400528125,1.2173561924649592,0.3066847820736392,1.0598270771002727,1.2267279259025303,-0.9527960532052369,-0.14273586663553606,-0.5415685589500772,0.5402516599634183,0.14572487187080357,0.3019846421646819,1.4085132623545216
Encode-Decode_Experiment-1-1,2360001,encoding,-0.770094,0.041667,0.092708,0.06628,24,1,False,0.315042,0.283575,2,35,38,37,0.9737,0.279301,1.0,11249.0,4.0,4.0,What are the workers doing to the clock?,1.0,4944.0,4.0,4.0,Where are the men standing?,6.0,2.0,,,,,0.6,0.75,0.5454545454545454,9.0,3.0,6.0,1.1830057368421052,-1.953099736842105,1.3129750282741623,0.25744281524041096,-1.434855961326747,-1.7107275080656401,0.7145120598777769,0.7110642597886404,1.4566265750634053,0.5402516599634183,-0.13442441935382524,0.7786378752768329,0.5837847849157684
Encode-Decode_Experiment-1-1,2397102,encoding,3.190341,0.571429,0.227286,0.10787,21,12,False,0.137035,0.164877,24,11,35,35,1.0,0.145785,1.0,4439.0,1.0,1.0,What are the couple doing with the cake?,1.0,4350.0,3.0,3.0,What is the man holding besides the cake knife?,7.0,2.0,,,,,0.5714285714285714,0.6,0.47368421052631576,12.0,3.0,9.0,2.2877332105263157,0.9026077894736844,1.077927015767692,0.2252856737283759,1.3089421211010053,0.7905976050888094,0.15874268885010562,1.0023086608905318,-0.6249329072592925,0.5402516599634183,1.1173945103125122,-0.3930600872600747,0.0452012947837898
Encode-Decode_Experiment-1-1,150472,encoding,1.668758,0.35,0.19075,0.09543,20,7,False,0.0896,0.086865,13,17,30,30,1.0,0.08805,1.0,3118.0,4.0,4.0,How many women are in the scene?,1.0,3643.0,2.0,2.0,Where is the pizza slice located?,8.0,2.0,,,,,0.5,0.5,0.5,8.0,2.0,5.0,0.927113294117647,0.741644705882353,1.5219880912509123,0.1424009588740023,0.2547860706533482,0.649609426303846,-0.7675395961960131,1.0023086608905318,-1.179623307322083,0.5402516599634183,-0.4243882442714296,1.8205534287074945,-1.3429923351803472
Encode-Decode_Experiment-1-1,2379478,encoding,3.182431,0.866667,0.396667,0.147686,15,13,False,0.395444,,34,0,35,34,0.9714,0.406243,1.0,4689.0,4.0,4.0,What is the position of the babies?,1.0,2082.0,2.0,2.0,How many babies are visible in the scene?,9.0,2.0,,,,,0.6923076923076923,0.8,0.5,9.0,4.0,5.0,2.2212703888888887,0.9611606111111111,1.1569489487697493,0.3220626180864117,1.3034620556960677,0.841884244864802,0.15874268885010562,0.6855942171067263,2.3968230027191133,0.5402516599634183,1.0420823448901182,0.0008587419480210054,1.666068760169417
Encode-Decode_Experiment-1-1,2369373,encoding,1.123483,0.6,0.46848,0.117064,25,15,False,0.238755,0.215394,30,10,40,40,1.0,0.232915,1.0,6485.0,3.0,3.0,What tool is the chef using?,1.0,4938.0,3.0,3.0,What is the appearance of the oven?,10.0,2.0,,,,,0.0,0.0,0.0,0.0,0.0,0.0,1.1629837777777778,-0.03950077777777783,1.2855118171843671,0.32509425480897675,-0.12298164915414579,-0.03459888190026184,1.0850249738962243,1.0023086608905318,0.5645497004014446,0.5402516599634183,-0.15711224776651309,0.6417356818249813,1.7168440906272031
Encode-Decode_Experiment-1-1,2347025,encoding,0.098753,0.473684,0.460684,0.131642,19,9,False,0.098077,0.100803,26,11,39,37,0.9487,0.101181,1.0,4866.0,1.0,1.0,Where is the baby in relation to the mother?,1.0,5607.0,2.0,2.0,Who is holding the umbrella in the scene?,11.0,2.0,,,,,0.4,0.5,0.3333333333333333,6.0,2.0,4.0,0.9090625789473684,-0.8103095789473684,1.2455567310475317,0.17505220608093222,-0.8329168479406908,-0.709753250489745,0.8997685168870005,0.4342159697678309,-1.0804958587855114,0.5402516599634183,-0.4448423630314282,0.4425623617858342,-0.7961333218787808
Encode-Decode_Experiment-1-1,2349475,encoding,1.168152,0.291667,0.184917,0.091384,24,7,False,0.089086,0.054041,15,21,37,36,0.973,0.070533,1.0,4998.0,3.0,3.0,Which part of the blender is the woman holding?,0.0,14841.0,2.0,1.0,What is the man doing to power the blender?,12.0,1.0,,,,,0.6,0.5,0.7,12.0,5.0,7.0,1.3088556842105263,-0.14070368421052626,1.1799822407727656,0.15267227492053612,-0.0920348676657574,-0.12324289360374216,0.5292556028685531,0.7033125076680574,-1.1856338663108525,-1.6247274185664562,0.008182105935085504,0.1156780974603715,-1.1709633243766226
Encode-Decode_Experiment-1-1,2394020,encoding,1.776663,0.615385,0.351692,0.14842,13,8,False,0.183927,0.232903,24,3,33,27,0.8182,0.211957,1.0,11365.0,1.0,1.0,Where is the scene taking place?,1.0,3777.0,2.0,2.0,What are the riders wearing on their heads?,13.0,2.0,,,,,0.5,0.3333333333333333,0.4444444444444444,6.0,1.0,4.0,1.7388129473684213,0.03785005263157881,1.1351067280700708,0.244497601875636,0.32954289208442006,0.033153005449310984,-0.21177022516834185,-1.010932104140793,-0.07659218332666076,0.5402516599634183,0.4953870083112511,-0.10802320611946241,0.3669720376790687
Encode-Decode_Experiment-1-1,2362704,encoding,-0.792589,0.045455,0.099455,0.068131,22,1,False,0.209003,0.157402,2,24,28,26,0.9286,0.175742,1.0,4644.0,4.0,4.0,What are the bears doing with the pumpkins?,1.0,3040.0,2.0,2.0,How many bears are in the scene?,16.0,2.0,,,,,0.6666666666666666,0.2,0.7142857142857143,6.0,1.0,5.0,0.16786689473684208,-0.960455894736842,1.0466965314202636,0.19013005864288826,-1.4504405468241006,-0.8412669811049923,-1.1380525102144605,0.21162994459110016,0.21663890072466277,0.5402516599634183,-1.2847262350124706,-0.5487418753709831,-0.5436020932098877
Encode-Decode_Experiment-1-1,2385550,encoding,2.217431,0.391304,0.199174,0.086646,23,9,False,0.279624,0.292266,19,13,34,32,0.9412,0.305476,1.0,6081.0,3.0,3.0,Which side of the frame is the boy on? (from your perspective),1.0,4534.0,4.0,4.0,Where are the tangerines in the scene?,17.0,2.0,,,,,0.6666666666666666,1.0,0.5833333333333334,10.0,3.0,7.0,1.7045187368421055,0.5129122631578944,1.2643407562442195,0.18372408348547578,0.634907932337704,0.44926180740115923,-0.026513768159118118,0.35116148276158865,1.0424593021757924,0.5402516599634183,0.4565266170043935,0.5361994183876002,-0.6508924895495848
Encode-Decode_Experiment-1-1,2410309,encoding,2.29324,0.36,0.16272,0.086027,25,9,False,0.292115,0.298995,17,17,36,34,0.9444,0.285861,1.0,3857.0,2.0,2.0,What is the baby touching?,1.0,3350.0,4.0,4.0,How many laptops or electronic devices are visible?,20.0,2.0,,,,,0.5333333333333333,0.2857142857142857,0.6666666666666666,8.0,2.0,6.0,0.31938894736842105,1.973851052631579,0.9809366432334214,0.24307399556567427,0.6874285743456566,1.7289036647052434,0.34399914585932934,0.38659806388425205,1.1885252405585127,0.5402516599634183,-1.113029433525727,-0.8765503353683072,0.34312878486052656
Encode-Decode_Experiment-1-1,2356125,encoding,1.7459,0.32,0.18104,0.079592,25,8,False,0.342058,0.22663,18,15,34,33,0.9706,0.284523,1.0,3847.0,2.0,2.0,How many uniformed staff are moving the luggage?,1.0,5075.0,1.0,1.0,Where is the luggage being moved to?,22.0,2.0,,,,,0.7,0.5714285714285714,0.6923076923076923,14.0,4.0,9.0,0.7890656111111112,0.9568343888888888,0.9652975669112814,0.30561199716381804,0.30823021799439576,0.8380948903213792,-0.026513768159118118,0.6767350718260602,1.7725434265042475,0.5402516599634183,-0.5808166004956525,-0.9545100409927323,1.390545737452591
Encode-Decode_Experiment-1-1,2348899,encoding,4.591028,0.75,0.2456,0.109866,20,15,False,0.217957,0.119061,28,4,32,32,1.0,0.205595,1.0,5228.0,4.0,4.0,What is the woman doing?,1.0,9034.0,1.0,1.0,Where is the woman located relative to the man? (from your perspective),23.0,2.0,,,,,0.6086956521739131,0.6666666666666666,0.5882352941176471,14.0,4.0,10.0,3.229555894736842,1.3614721052631578,1.3986784428233952,0.14300788145883045,2.2793411567325657,1.1925186092665043,-0.3970266821775656,1.0023086608905318,0.32134424155236885,0.5402516599634183,2.1846183212240127,1.2058634243847102,-1.332827299713674
Encode-Decode_Experiment-1-1,2350974,encoding,4.20909,0.736842,0.259579,0.113389,19,14,False,0.272914,0.241189,26,5,38,31,0.8158,0.278012,1.0,5186.0,4.0,4.0,Between which two objects is the child standing?,1.0,8762.0,1.0,1.0,What is the child up against?,24.0,2.0,,,,,0.5833333333333334,0.5,0.5,7.0,2.0,5.0,1.986942692307692,2.2221473076923077,1.3508148030930802,0.33040060879114963,2.014733669927129,1.9463873014440725,0.7145120598777769,-1.0375095399827916,0.9639946118749317,0.5402516599634183,0.7765545533641308,0.9672665158060139,1.805717495202818
Encode-Decode_Experiment-1-1,2383555,encoding,-0.030115,0.2,0.2028,0.092978,25,5,False,0.211438,0.14111,10,23,34,33,0.9706,0.165578,0.0,7759.0,3.0,2.0,Who is holding the child in the boat?,1.0,4709.0,4.0,4.0,What is the woman at the back doing in the boat?,26.0,1.0,,,,,0.6111111111111112,0.6666666666666666,0.6363636363636364,11.0,4.0,7.0,0.1691180625,-0.1992330625,0.9947364561235617,0.29166666666666663,-0.9221968818981473,-0.17450899926185645,-0.026513768159118118,0.6767350718260602,0.2451130469068677,-1.6247274185664562,-1.2833084776674069,-0.8077592297795172,1.1569825406930536
Encode-Decode_Experiment-1-1,2409918,encoding,2.408731,0.473684,0.224211,0.103571,19,9,False,0.169894,0.098334,25,10,35,35,1.0,0.149448,1.0,9968.0,4.0,4.0,Where are the elephants in the scene?,1.0,6438.0,2.0,2.0,What is the elephant on the right (from your perspective) doing with its trunk?,27.0,2.0,,,,,0.625,0.6666666666666666,0.6,10.0,4.0,6.0,2.2261904736842104,0.18254052631578954,1.4272966719417661,0.13819269959814168,0.7674409932687455,0.15988794315753194,0.15874268885010562,1.0023086608905318,-0.24068979867568893,0.5402516599634183,1.0476575255831513,1.3485233022191871,-1.413474314037984
Encode-Decode_Experiment-1-1,2347400,encoding,0.212464,0.222222,0.199444,0.107208,18,4,False,0.198821,0.245429,9,18,30,27,0.9,0.241136,1.0,3779.0,3.0,3.0,What are the men doing with the wine?,1.0,2865.0,1.0,1.0,What are the men sitting on in the scene?,31.0,2.0,,,,,0.5,0.375,0.5,10.0,3.0,6.0,1.0655103157894736,-0.8530463157894737,1.0427120626048556,0.15811388300841894,-0.754137616934263,-0.7471865212754767,-0.7675395961960131,-0.10508449919270521,0.09757370301328229,0.5402516599634183,-0.26756403588955463,-0.5686041747498256,-1.0798246180707318
Encode-Decode_Experiment-1-1,2408717,encoding,1.46445,0.363636,0.219955,0.098113,22,8,False,0.193703,0.220917,21,11,37,32,0.8649,0.207272,1.0,2675.0,2.0,2.0,How many surfers are in the scene?,1.0,4633.0,3.0,3.0,What are the surfers doing with the surfboards?,32.0,2.0,,,,,0.5333333333333333,0.4,0.5555555555555556,8.0,2.0,5.0,0.5325437368421053,0.9319062631578947,0.7943932270394137,0.15370663939515447,0.11324103869987616,0.8162602499248359,0.5292556028685531,-0.4937794983819217,0.03772537440526356,0.5402516599634183,-0.871493664054608,-1.8064562654308993,-1.15363928366237
Encode-Decode_Experiment-1-1,2386442,encoding,2.947547,0.769231,0.331385,0.148546,13,10,False,0.136657,0.144387,33,3,37,36,0.973,0.134292,1.0,6336.0,3.0,3.0,What is the person on the right wearing?,1.0,6401.0,1.0,1.0,Who is brushing their teeth in the scene?,33.0,2.0,,,,,0.4117647058823529,0.3333333333333333,0.38461538461538464,7.0,2.0,5.0,2.905053333333333,0.042493666666667096,1.488627680160608,0.28835178777162634,1.1407339036640411,0.03722036469206502,0.5292556028685531,0.7033125076680574,-0.6293531237918893,0.5402516599634183,1.8169091270863789,1.654254104211708,1.1014633321841922
Encode-Decode_Experiment-1-1,2385851,encoding,0.29707,0.12,0.1012,0.063285,25,3,False,0.16401,0.12087,6,22,31,28,0.9032,0.15682,1.0,6572.0,3.0,3.0,Where are the men?,1.0,3877.0,2.0,2.0,What are the men doing with the suitcases?,35.0,2.0,,,,,0.3125,0.14285714285714285,0.4444444444444444,5.0,1.0,4.0,-0.21419211764705884,0.5112621176470589,1.0009813005996218,0.19449276506277735,-0.6955223939696437,0.4478164386550338,-0.5822831391867893,-0.06964791807004184,-0.30949549729420817,0.5402516599634183,-1.7176553649061905,-0.7766291152512862,-0.4705333582551447
Encode-Decode_Experiment-1-1,2344622,encoding,0.018231,0.333333,0.330417,0.159986,12,4,False,0.169364,0.246224,9,10,24,19,0.7917,0.254556,1.0,3713.0,4.0,4.0,What is the cat resting its head on?,1.0,8759.0,2.0,2.0,Where is the cat located?,37.0,2.0,,,,,0.42857142857142855,0.4,0.4444444444444444,6.0,2.0,4.0,0.41730294736842105,-0.39907194736842105,0.9118099608916732,0.23840831546663313,-0.8887026667189936,-0.34954864064664676,-1.8790783382513554,-1.3043912915628517,-0.24688745677694918,0.5402516599634183,-1.002078450953905,-1.2211420296058102,0.26498569895718416
Encode-Decode_Experiment-1-1,2411268,encoding,2.743085,0.6,0.2838,0.115272,20,12,False,0.159698,0.437671,23,8,32,31,0.9688,0.234453,0.0,9988.0,1.0,4.0,Where is the fruit branch relative to the child?,1.0,7151.0,2.0,2.0,What is the child holding while picking fruit?,38.0,1.0,,,,,0.5,0.3333333333333333,0.6,8.0,2.0,6.0,1.8709475882352942,0.872137411764706,1.2676663714699867,0.29500669857798545,0.9990821801717118,0.7639084850481807,-0.3970266821775656,0.6568019949445617,-0.35991870811049875,-1.6247274185664562,0.6451150169305943,0.5527773785356611,1.2129230241864954
Encode-Decode_Experiment-1-1,2345035,encoding,-0.53349,0.25,0.305964,0.104902,28,7,False,0.234224,0.247613,15,21,41,36,0.878,0.23046,1.0,6065.0,3.0,3.0,What are the people doing with the football?,1.0,5287.0,2.0,2.0,Who runs toward the football in the scene?,42.0,2.0,,,,,0.38095238095238093,0.2,0.4666666666666667,8.0,1.0,7.0,0.21320105263157893,-0.746691052631579,0.9432952232240902,0.2041649823125105,-1.2709361895100815,-0.654029540666821,1.270281430905448,-0.3487109944110176,0.5115655704829349,0.5402516599634183,-1.2333559573965303,-1.0641901909944647,-0.30853834630029187
Encode-Decode_Experiment-1-1,2370664,encoding,4.605735,0.555556,0.141389,0.089924,18,10,False,0.144682,0.152652,28,12,40,40,1.0,0.147073,1.0,3329.0,1.0,1.0,Where are the people located in the scene?,1.0,3201.0,4.0,4.0,How many donuts are in the scene?,45.0,2.0,,,,,0.8235294117647058,0.5714285714285714,0.75,14.0,4.0,9.0,0.856098157894737,3.749636842105263,1.4260301774759678,0.25342910195739954,2.2895301986934276,3.284321210046034,1.0850249738962243,1.0023086608905318,-0.5355112251831848,0.5402516599634183,-0.5048588525746718,1.3422099155654739,0.5165611572328062
Encode-Decode_Experiment-1-1,2367132,encoding,2.469503,0.380952,0.154952,0.091516,21,8,False,0.120313,0.081787,21,15,37,36,0.973,0.103802,1.0,4443.0,4.0,4.0,In which hand(s) are the men holding the controllers?,1.0,3240.0,2.0,2.0,How many men are playing in the scene?,46.0,2.0,,,,,0.6470588235294118,0.6,0.6153846153846154,11.0,3.0,8.0,3.1585223333333334,-0.6890193333333334,1.3235998062047658,0.16622507480397908,0.8095439685897139,-0.6035146617899904,0.5292556028685531,0.7033125076680574,-0.820474867201318,0.5402516599634183,2.10412683447753,0.831601652851223,-0.943974421785478
Encode-Decode_Experiment-10-1,2362704,encoding,1.880256,0.333333,0.182967,0.079971,30,10,False,0.248115,0.1542,17,17,35,34,0.9714,0.199018,1.0,4528.0,4.0,4.0,What are the bears doing with the pumpkins?,1.0,2438.0,2.0,2.0,How many bears are in the scene?,1.0,2.0,,,,,0.3333333333333333,0.2,0.2857142857142857,3.0,1.0,2.0,0.16786689473684208,1.712389105263158,1.0466965314202636,0.19013005864288826,0.40131235042749036,1.4998881478639092,0.15874268885010562,0.6855942171067263,0.6740026812086065,0.5402516599634183,-1.2847262350124706,-0.5487418753709831,-0.5436020932098877
Encode-Decode_Experiment-10-1,150472,encoding,-0.859561,0.15,0.24775,0.113721,20,3,False,0.087219,0.075484,5,23,31,28,0.9032,0.092926,1.0,3338.0,2.0,2.0,Where is the pizza slice located?,1.0,2893.0,4.0,4.0,How many women are in the scene?,2.0,2.0,,,,,0.5625,0.75,0.6,9.0,3.0,6.0,0.927113294117647,-1.786674294117647,1.5219880912509123,0.1424009588740023,-1.4968388957873715,-1.5649548280840906,-0.5822831391867893,-0.06964791807004184,-1.2074659939996313,0.5402516599634183,-0.4243882442714296,1.8205534287074945,-1.3429923351803472
Encode-Decode_Experiment-10-1,2370664,encoding,-0.010006,0.214286,0.2155,0.121359,14,3,False,0.069476,0.126217,6,16,26,22,0.8462,0.122232,1.0,3833.0,1.0,1.0,Where are the people located in the scene?,0.0,2566.0,3.0,4.0,How many donuts are in the scene?,4.0,1.0,,,,,0.29411764705882354,0.14285714285714285,0.25,5.0,1.0,3.0,0.856098157894737,-0.8661041578947369,1.4260301774759678,0.25342910195739954,-0.9082653224508797,-0.7586239349743643,-1.508565424232908,-0.7008620193174876,-1.414947216057481,-1.6247274185664562,-0.5048588525746718,1.3422099155654739,0.5165611572328062
Encode-Decode_Experiment-10-1,2379478,encoding,0.921081,0.35,0.2475,0.111282,20,7,False,0.319026,0.389875,18,12,31,30,0.9677,0.355879,1.0,2007.0,2.0,2.0,How many babies are visible in the scene?,1.0,5045.0,4.0,4.0,What is the position of the babies?,5.0,2.0,,,,,0.0,0.0,0.0,0.0,0.0,0.0,2.2212703888888887,-1.3001893888888887,1.1569489487697493,0.3220626180864117,-0.26320620011371004,-1.1388408442794713,-0.5822831391867893,0.6446206701836462,1.503214254073633,0.5402516599634183,1.0420823448901182,0.0008587419480210054,1.666068760169417
Encode-Decode_Experiment-10-1,2412687,encoding,0.594297,0.416667,0.326083,0.152421,12,5,False,0.123179,0.199847,12,4,28,16,0.5714,0.119551,1.0,3895.0,3.0,3.0,What is the human's body position?,1.0,3399.0,4.0,4.0,What is the dog biting onto in the scene?,6.0,2.0,,,,,0.0,0.0,0.0,0.0,0.0,0.0,1.430236875,-0.8359398750000001,1.2173561924649592,0.3066847820736392,-0.489602874359865,-0.732202924548888,-1.1380525102144605,-3.7439784232262228,-0.7869607386763902,0.5402516599634183,0.14572487187080357,0.3019846421646819,1.4085132623545216
Encode-Decode_Experiment-10-1,2347025,encoding,0.508345,0.52381,0.460143,0.125243,21,11,False,0.125089,0.154398,28,6,34,34,1.0,0.130261,1.0,3994.0,1.0,1.0,Where is the baby in relation to the mother?,0.0,4496.0,3.0,2.0,Who is holding the umbrella in the scene?,7.0,1.0,,,,,0.5333333333333333,0.5,0.5,8.0,2.0,6.0,0.9090625789473684,-0.40071757894736837,1.2455567310475317,0.17505220608093222,-0.5491506090861842,-0.3509900556226164,-0.026513768159118118,1.0023086608905318,-0.7646257821227919,-1.6247274185664562,-0.4448423630314282,0.4425623617858342,-0.7961333218787808
Encode-Decode_Experiment-10-1,2356125,encoding,2.47984,0.5,0.243727,0.103342,22,11,False,0.235264,0.258587,25,10,37,35,0.9459,0.249079,1.0,2514.0,1.0,1.0,Where is the luggage being moved to?,1.0,3297.0,2.0,2.0,How many uniformed staff are moving the luggage?,8.0,2.0,,,,,0.45,0.42857142857142855,0.46153846153846156,9.0,3.0,6.0,0.7890656111111112,1.6907743888888886,0.9652975669112814,0.30561199716381804,0.8167054649349526,1.4809557353593201,0.5292556028685531,0.4032089612855,0.5237270127948419,0.5402516599634183,-0.5808166004956525,-0.9545100409927323,1.390545737452591
Encode-Decode_Experiment-10-1,2350974,encoding,2.945957,0.8,0.3145,0.164802,10,8,False,0.256598,,19,0,25,19,0.76,0.238674,1.0,2261.0,1.0,1.0,What is the child up against?,1.0,4270.0,4.0,4.0,Between which two objects is the child standing?,9.0,2.0,,,,,0.0,0.0,0.0,0.0,0.0,0.0,1.986942692307692,0.9590143076923079,1.3508148030930802,0.33040060879114963,1.1396323481654504,0.8400042895148828,-1.6938218812421317,-1.6554349233092374,0.7732002919123622,0.5402516599634183,0.7765545533641308,0.9672665158060139,1.805717495202818
Encode-Decode_Experiment-10-1,2383555,encoding,0.816161,0.285714,0.199952,0.10508,21,6,False,0.302928,0.158923,10,16,32,26,0.8125,0.204814,1.0,3491.0,2.0,2.0,Who is holding the child in the boat?,1.0,4016.0,4.0,4.0,What is the woman at the back doing in the boat?,10.0,2.0,,,,,0.3888888888888889,0.3333333333333333,0.45454545454545453,7.0,2.0,5.0,0.1691180625,0.6470429375,0.9947364561235617,0.29166666666666663,-0.3358950069766733,0.5667473765935658,-0.3970266821775656,-1.074053514265538,1.3149691595187516,0.5402516599634183,-1.2833084776674069,-0.8077592297795172,1.1569825406930536
Encode-Decode_Experiment-10-1,2369373,encoding,2.615965,0.777778,0.427389,0.133942,18,14,False,0.261421,0.402052,24,1,26,25,0.9615,0.261874,1.0,4815.0,3.0,3.0,What is the appearance of the oven?,1.0,4239.0,3.0,3.0,What tool is the chef using?,11.0,2.0,,,,,0.4666666666666667,0.3333333333333333,0.5,7.0,1.0,6.0,1.1629837777777778,1.4529812222222223,1.2855118171843671,0.32509425480897675,0.9110131644605043,1.2726717938006353,-1.508565424232908,0.5759622942584857,0.8295989806338305,0.5402516599634183,-0.15711224776651309,0.6417356818249813,1.7168440906272031
Encode-Decode_Experiment-10-1,2385550,encoding,0.843475,0.388889,0.287722,0.11994,18,7,False,0.276524,0.262302,14,14,32,28,0.875,0.277336,1.0,4548.0,3.0,3.0,Which side of the frame is the boy on? (from your perspective),1.0,3141.0,4.0,4.0,Where are the tangerines in the scene?,13.0,2.0,,,,,1.0,1.0,1.0,15.0,3.0,12.0,1.7045187368421055,-0.8610437368421056,1.2643407562442195,0.18372408348547578,-0.31697180767572997,-0.7541914928753611,-0.3970266821775656,-0.38193278921351476,1.0062088491306855,0.5402516599634183,0.4565266170043935,0.5361994183876002,-0.6508924895495848
Encode-Decode_Experiment-10-1,2348899,encoding,4.18893,0.608696,0.217739,0.093331,23,14,False,0.201666,0.175792,22,6,28,28,1.0,0.196122,1.0,6102.0,1.0,1.0,Where is the woman located relative to the man? (from your perspective),1.0,3203.0,4.0,4.0,What is the woman doing?,14.0,2.0,,,,,0.5652173913043478,0.5,0.5882352941176471,13.0,3.0,10.0,3.229555894736842,0.9593741052631581,1.3986784428233952,0.14300788145883045,2.0007667775676423,0.8403194375793559,-1.1380525102144605,1.0023086608905318,0.13084226395306614,0.5402516599634183,2.1846183212240127,1.2058634243847102,-1.332827299713674
Encode-Decode_Experiment-10-1,2411268,encoding,0.473765,0.461538,0.388769,0.153598,13,6,False,0.243625,0.288897,16,9,26,25,0.9615,0.264995,1.0,6114.0,4.0,4.0,Where is the fruit branch relative to the child?,0.0,23799.0,1.0,2.0,What is the child holding while picking fruit?,15.0,1.0,,,,,0.625,0.6666666666666666,0.5,10.0,4.0,5.0,1.8709475882352942,-1.3971825882352942,1.2676663714699867,0.29500669857798545,-0.573107709175026,-1.223797557491401,-1.508565424232908,0.5759622942584857,0.6214979927658548,-1.6247274185664562,0.6451150169305943,0.5527773785356611,1.2129230241864954
Encode-Decode_Experiment-10-1,2387122,encoding,-0.136416,0.421053,0.439421,0.13465,19,8,False,0.179375,0.28172,13,11,24,24,1.0,0.226283,1.0,4071.0,3.0,3.0,Where is the polar bear located in the scene?,1.0,3613.0,1.0,1.0,What is the polar bear doing next to the enclosure edge?,17.0,2.0,,,,,0.4117647058823529,0.4,0.4166666666666667,7.0,2.0,5.0,0.8190727894736842,-0.9554887894736842,0.8482144860695828,0.18033698569591206,-0.9958424485998235,-0.8369162746618688,-1.8790783382513554,1.0023086608905318,-0.12982188083031468,0.5402516599634183,-0.5468140480155639,-1.5381610398114771,-0.7076212553274387
Encode-Decode_Experiment-10-1,2349475,encoding,0.821209,0.153846,0.084154,0.084866,13,2,False,0.065656,0.09436,3,20,25,23,0.92,0.088054,1.0,2724.0,3.0,3.0,Which part of the blender is the woman holding?,1.0,3992.0,1.0,1.0,What is the man doing to power the blender?,18.0,2.0,,,,,0.75,0.6,0.9,15.0,6.0,9.0,1.3088556842105263,-0.48764668421052637,1.1799822407727656,0.15267227492053612,-0.3323977414691987,-0.42713159044544374,-1.6938218812421317,0.11639413282394241,-1.4596171291646773,0.5402516599634183,0.008182105935085504,0.1156780974603715,-1.1709633243766226
Encode-Decode_Experiment-10-1,2410309,encoding,0.661148,0.263158,0.192158,0.107389,19,5,False,0.287865,0.226602,11,15,26,26,1.0,0.252521,1.0,5188.0,2.0,2.0,What is the baby touching?,1.0,3019.0,4.0,4.0,How many laptops or electronic devices are visible?,20.0,2.0,,,,,0.8666666666666667,0.7142857142857143,0.8888888888888888,13.0,5.0,8.0,0.31938894736842105,0.3417590526315789,0.9809366432334214,0.24307399556567427,-0.44328835446283915,0.29934805757160393,-1.508565424232908,1.0023086608905318,1.1388270388031236,0.5402516599634183,-1.113029433525727,-0.8765503353683072,0.34312878486052656
Encode-Decode_Experiment-10-1,2344622,encoding,-0.988013,0.25,0.386562,0.138219,16,4,False,0.153564,0.260008,8,17,31,25,0.8065,0.256139,1.0,3365.0,4.0,4.0,What is the cat resting its head on?,1.0,4642.0,2.0,2.0,Where is the cat located?,22.0,2.0,,,,,0.6428571428571429,0.6,0.6666666666666666,9.0,3.0,6.0,0.41730294736842105,-1.4053159473684211,0.9118099608916732,0.23840831546663313,-1.5858307240294736,-1.2309215977744201,-0.5822831391867893,-1.1404971038705323,-0.4316478303616879,0.5402516599634183,-1.002078450953905,-1.2211420296058102,0.26498569895718416
Encode-Decode_Experiment-10-1,2397102,encoding,1.887584,0.5,0.27925,0.116948,20,10,False,0.116305,0.084022,27,5,34,32,0.9412,0.105677,1.0,2309.0,1.0,1.0,What are the couple doing with the cake?,1.0,3756.0,3.0,3.0,What is the man holding besides the cake knife?,23.0,2.0,,,,,0.0,0.0,0.0,0.0,0.0,0.0,2.2877332105263157,-0.4001492105263158,1.077927015767692,0.2252856737283759,0.4063892049518117,-0.35049221955502136,-0.026513768159118118,0.35116148276158865,-0.8673431948802821,0.5402516599634183,1.1173945103125122,-0.3930600872600747,0.0452012947837898
Encode-Decode_Experiment-10-1,2409918,encoding,-0.195526,0.352941,0.379176,0.134178,17,6,False,0.170519,0.124303,16,10,35,26,0.7429,0.131688,1.0,5345.0,4.0,4.0,Where are the elephants in the scene?,1.0,3997.0,2.0,2.0,What is the elephant on the right (from your perspective) doing with its trunk?,24.0,2.0,,,,,0.6875,0.6666666666666666,0.6,11.0,4.0,6.0,2.2261904736842104,-2.4217164736842105,1.4272966719417661,0.13819269959814168,-1.0367939866637748,-2.1211906950362893,0.15874268885010562,-1.8447991536834711,-0.23338123959401397,0.5402516599634183,1.0476575255831513,1.3485233022191871,-1.413474314037984
Encode-Decode_Experiment-10-1,2374670,encoding,0.029488,0.714286,0.709929,0.14776,14,10,False,0.17199,0.258162,17,7,28,24,0.8571,0.215653,1.0,4770.0,1.0,1.0,What vehicle sprays water in the scene?,1.0,5684.0,3.0,3.0,Where is the man standing relative to the vehicle?,25.0,2.0,,,,,0.3684210526315789,0.42857142857142855,0.36363636363636365,7.0,3.0,4.0,1.2780294736842106,-1.2485414736842106,0.952351037069395,0.18321268886084818,-0.8809037923494132,-1.093602238381268,-1.1380525102144605,-0.5801561648684145,-0.21617981493938415,0.5402516599634183,-0.02674853061189013,-1.019047590048775,-0.6594575761467123
Encode-Decode_Experiment-10-1,2360001,encoding,2.026076,0.285714,0.104571,0.089406,14,4,False,0.261531,0.219258,9,14,23,23,1.0,0.235799,1.0,4442.0,4.0,4.0,Where are the men standing?,1.0,3459.0,4.0,4.0,What are the workers doing to the clock?,27.0,2.0,,,,,0.0,0.0,0.0,0.0,0.0,0.0,1.1830057368421052,0.843070263157895,1.3129750282741623,0.25744281524041096,0.5023367672856425,0.738448458729656,-2.0643347952605793,1.0023086608905318,0.8308852870322052,0.5402516599634183,-0.13442441935382524,0.7786378752768329,0.5837847849157684
Encode-Decode_Experiment-10-1,2347400,encoding,0.444285,0.4,0.3264,0.165659,10,4,False,0.138936,0.267598,21,11,37,32,0.8649,0.188872,1.0,2603.0,1.0,1.0,What are the men sitting on in the scene?,1.0,4788.0,3.0,3.0,What are the men doing with the wine?,29.0,2.0,,,,,0.45,0.375,0.5,9.0,3.0,6.0,1.0655103157894736,-0.6212253157894736,1.0427120626048556,0.15811388300841894,-0.5935315180419736,-0.5441336232762661,0.5292556028685531,-0.4937794983819217,-0.6027031939564703,0.5402516599634183,-0.26756403588955463,-0.5686041747498256,-1.0798246180707318
Encode-Decode_Experiment-10-1,2408717,encoding,-0.059029,0.222222,0.228778,0.111057,18,4,False,0.157241,0.270898,12,12,28,24,0.8571,0.215179,1.0,3635.0,2.0,2.0,How many surfers are in the scene?,1.0,2977.0,3.0,3.0,What are the surfers doing with the surfboards?,30.0,2.0,,,,,0.8666666666666667,0.6,1.0,13.0,3.0,9.0,0.5325437368421053,-0.5915727368421053,0.7943932270394137,0.15370663939515447,-0.942228564719685,-0.518160816289783,-1.1380525102144605,-0.5801561648684145,-0.3886501155723789,0.5402516599634183,-0.871493664054608,-1.8064562654308993,-1.15363928366237
Encode-Decode_Experiment-10-1,2394020,encoding,1.732468,0.8,0.4745,0.187882,10,8,False,0.252803,,15,0,19,15,0.7895,0.247894,1.0,3488.0,1.0,1.0,Where is the scene taking place?,1.0,3246.0,2.0,2.0,What are the riders wearing on their heads?,33.0,2.0,,,,,0.0,0.0,0.0,0.0,0.0,0.0,1.7388129473684213,-0.006344947368421394,1.1351067280700708,0.244497601875636,0.29892449883900757,-0.005557563597820848,-2.8053606232974744,-1.3287539410846827,0.7288227211684328,0.5402516599634183,0.4953870083112511,-0.10802320611946241,0.3669720376790687
Encode-Decode_Experiment-10-1,2356991,encoding,2.220155,0.5,0.238,0.11801,16,8,False,0.128548,0.042288,20,10,31,30,0.9677,0.102377,1.0,5505.0,2.0,2.0,What is the current action of the gloved player on the base?,1.0,6324.0,1.0,1.0,How is the player on the left (from your perspective) reaching the base?,36.0,2.0,,,,,0.3333333333333333,0.2857142857142857,0.3,5.0,2.0,3.0,0.8878508947368422,1.332304105263158,0.9251084568846146,0.2485042976789582,0.6367951255315157,1.1669702468280672,-0.5822831391867893,0.6446206701836462,-0.7241772927411709,0.5402516599634183,-0.46887832525502326,-1.1548499538142492,0.4340781331895421
Encode-Decode_Experiment-10-1,2386442,encoding,-0.711952,0.545455,0.667818,0.171871,11,6,False,0.129535,0.134756,13,7,20,20,1.0,0.131362,1.0,4429.0,3.0,3.0,What is the person on the right wearing?,1.0,4695.0,1.0,1.0,Who is brushing their teeth in the scene?,37.0,2.0,,,,,0.23529411764705882,0.16666666666666666,0.23076923076923078,4.0,1.0,3.0,2.905053333333333,-3.617005333333333,1.488627680160608,0.28835178777162634,-1.3945750557927552,-3.1681487656939344,-2.6201041662882503,1.0023086608905318,-0.7126356162393899,0.5402516599634183,1.8169091270863789,1.654254104211708,1.1014633321841922
Encode-Decode_Experiment-10-1,2345035,encoding,-0.090433,0.277778,0.289611,0.130852,18,5,False,0.17469,0.20841,12,14,40,26,0.65,0.167931,0.0,3175.0,2.0,3.0,What are the people doing with the football?,1.0,6623.0,2.0,2.0,Who runs toward the football in the scene?,41.0,1.0,,,,,0.5238095238095238,0.4,0.6,11.0,2.0,9.0,0.21320105263157893,-0.30363405263157894,0.9432952232240902,0.2041649823125105,-0.9639853250201472,-0.265954224673722,1.0850249738962243,-2.873567399400798,-0.18460683970654893,-1.6247274185664562,-1.2333559573965303,-1.0641901909944647,-0.30853834630029187
Encode-Decode_Experiment-10-1,2371471,encoding,1.413843,0.4,0.1956,0.144571,10,4,False,0.148076,0.373248,31,14,45,45,1.0,0.218129,1.0,7062.0,2.0,2.0,What stunt is one motorcyclist performing?,1.0,4367.0,3.0,3.0,What is nearest to the motorcyclists?,42.0,2.0,,,,,0.4,0.6,0.3333333333333333,8.0,3.0,5.0,1.6490495,-0.2352065000000001,1.3372851002744826,0.20472363006229238,0.07818039774568264,-0.2060182703605425,2.011307258942343,1.0023086608905318,-0.4958228259460579,0.5402516599634183,0.3936718022675764,0.8998218901006834,-0.2991818413161878
Encode-Decode_Experiment-10-1,2385851,encoding,-0.674388,0.133333,0.215067,0.121196,15,2,False,0.367904,0.224178,6,13,30,19,0.6333,0.33537,1.0,5412.0,3.0,3.0,Where are the men?,1.0,2633.0,2.0,2.0,What are the men doing with the suitcases?,46.0,2.0,,,,,0.4375,0.2857142857142857,0.5555555555555556,7.0,2.0,5.0,-0.21419211764705884,-0.4601958823529412,1.0009813005996218,0.19449276506277735,-1.3685506339380054,-0.4030873284088518,-0.7675395961960131,-3.0585020571346995,2.0747786553441947,0.5402516599634183,-1.7176553649061905,-0.7766291152512862,-0.4705333582551447
Encode-Decode_Experiment-10-1,2367132,encoding,2.837132,0.5,0.165167,0.118018,12,6,False,0.105676,0.034278,11,11,22,22,1.0,0.069977,1.0,2315.0,2.0,2.0,How many men are playing in the scene?,0.0,7330.0,1.0,4.0,In which hand(s) are the men holding the controllers?,55.0,1.0,,,,,0.6470588235294118,0.6,0.6153846153846154,11.0,3.0,8.0,3.1585223333333334,-0.32139033333333344,1.3235998062047658,0.16622507480397908,1.064238148710037,-0.2815070186577817,-2.249591252269803,1.0023086608905318,-0.9916354740468765,-1.6247274185664562,2.10412683447753,0.831601652851223,-0.943974421785478
Encode-Decode_Experiment-11-1,2370664,encoding,0.697606,0.153846,0.108385,0.065168,26,4,False,0.15941,0.163214,9,25,34,34,1.0,0.162207,1.0,2788.0,4.0,4.0,How many donuts are in the scene?,1.0,3789.0,1.0,1.0,Where are the people located in the scene?,1.0,2.0,,,,,0.4117647058823529,0.2857142857142857,0.3333333333333333,7.0,2.0,4.0,0.856098157894737,-0.15849215789473703,1.4260301774759678,0.25342910195739954,-0.41803017184170005,-0.13882388554391017,-0.026513768159118118,1.0023086608905318,-0.3632864921353346,0.5402516599634183,-0.5048588525746718,1.3422099155654739,0.5165611572328062
Encode-Decode_Experiment-11-1,2356125,encoding,1.642844,0.4,0.24756,0.09279,25,10,False,0.290167,0.261904,18,12,37,30,0.8108,0.29884,0.0,2916.0,4.0,2.0,How many uniformed staff are moving the luggage?,1.0,3095.0,1.0,1.0,Where is the luggage being moved to?,2.0,1.0,,,,,0.45,0.42857142857142855,0.46153846153846156,9.0,3.0,6.0,0.7890656111111112,0.8537783888888888,0.9652975669112814,0.30561199716381804,0.23683279443292474,0.7478277468951725,0.5292556028685531,-1.0928791979869534,1.1657459236127485,-1.6247274185664562,-0.5808166004956525,-0.9545100409927323,1.390545737452591
Encode-Decode_Experiment-11-1,2344622,encoding,-0.812151,0.16,0.23684,0.094613,25,4,False,0.21429,0.20509,8,22,36,30,0.8333,0.229643,1.0,3551.0,4.0,4.0,What is the cat resting its head on?,1.0,4489.0,2.0,2.0,Where is the cat located?,3.0,2.0,,,,,0.5,0.4,0.5555555555555556,7.0,2.0,5.0,0.41730294736842105,-1.229453947368421,0.9118099608916732,0.23840831546663313,-1.463993143467765,-1.0768834012868838,0.34399914585932934,-0.8437157369682242,0.2784634637083664,0.5402516599634183,-1.002078450953905,-1.2211420296058102,0.26498569895718416
Encode-Decode_Experiment-11-1,2360001,encoding,1.051911,0.214286,0.137321,0.073166,28,6,False,0.150861,0.28008,13,22,35,35,1.0,0.232084,1.0,3527.0,4.0,4.0,What are the workers doing to the clock?,0.0,4447.0,2.0,4.0,Where are the men standing?,5.0,1.0,,,,,0.6,0.75,0.5454545454545454,9.0,3.0,6.0,1.1830057368421052,-0.13109473684210515,1.3129750282741623,0.25744281524041096,-0.17256688823912483,-0.114826379957956,0.15874268885010562,1.0023086608905318,-0.46325588667811524,-1.6247274185664562,-0.13442441935382524,0.7786378752768329,0.5837847849157684
Encode-Decode_Experiment-11-1,150472,encoding,-0.525739,0.217391,0.272826,0.105442,23,5,False,0.091957,0.093667,11,16,29,27,0.931,0.10335,1.0,4609.0,2.0,2.0,Where is the pizza slice located?,1.0,2436.0,4.0,4.0,How many women are in the scene?,6.0,2.0,,,,,0.4375,0.25,0.6,7.0,1.0,6.0,0.927113294117647,-1.452852294117647,1.5219880912509123,0.1424009588740023,-1.265566279655003,-1.2725588651821427,-0.9527960532052369,0.2382073804330986,-1.152061269313271,0.5402516599634183,-0.4243882442714296,1.8205534287074945,-1.3429923351803472
Encode-Decode_Experiment-11-1,2362704,encoding,0.174253,0.153846,0.141192,0.072618,26,4,False,0.206413,0.164435,7,23,30,30,1.0,0.17423,1.0,3273.0,4.0,4.0,What are the bears doing with the pumpkins?,1.0,2147.0,2.0,2.0,How many bears are in the scene?,7.0,2.0,,,,,0.5555555555555556,0.2,0.5714285714285714,5.0,1.0,4.0,0.16786689473684208,0.006386105263157915,1.0466965314202636,0.19013005864288826,-0.780610281812653,0.005593613954785057,-0.7675395961960131,1.0023086608905318,0.1863522318902026,0.5402516599634183,-1.2847262350124706,-0.5487418753709831,-0.5436020932098877
Encode-Decode_Experiment-11-1,2367132,encoding,3.730474,0.35,0.0866,0.070608,20,7,False,0.089679,0.110717,19,14,34,33,0.9706,0.098292,1.0,5518.0,4.0,4.0,In which hand(s) are the men holding the controllers?,1.0,2338.0,2.0,2.0,How many men are playing in the scene?,8.0,2.0,,,,,0.7058823529411765,0.6,0.6923076923076923,12.0,3.0,9.0,3.1585223333333334,0.5719516666666666,1.3235998062047658,0.16622507480397908,1.6831474519941896,0.5009746460939479,-0.026513768159118118,0.6767350718260602,-1.1786995054541594,0.5402516599634183,2.10412683447753,0.831601652851223,-0.943974421785478
Encode-Decode_Experiment-11-1,2386442,encoding,3.655787,0.703704,0.312148,0.107106,27,19,False,0.113722,0.105171,33,4,37,37,1.0,0.112798,0.0,3200.0,4.0,3.0,What is the person on the right wearing?,1.0,4148.0,1.0,1.0,Who is brushing their teeth in the scene?,9.0,1.0,,,,,0.47058823529411764,0.16666666666666666,0.5384615384615384,8.0,1.0,7.0,2.905053333333333,0.7507336666666671,1.488627680160608,0.28835178777162634,1.6314041340550538,0.6575704817175322,0.5292556028685531,1.0023086608905318,-0.8975480078530278,-1.6247274185664562,1.8169091270863789,1.654254104211708,1.1014633321841922
Encode-Decode_Experiment-11-1,2347400,encoding,1.436542,0.318182,0.179818,0.096317,22,7,False,0.235781,0.188421,14,14,38,28,0.7368,0.237335,1.0,3737.0,3.0,3.0,What are the men doing with the wine?,1.0,2667.0,1.0,1.0,What are the men sitting on in the scene?,11.0,2.0,,,,,0.4,0.125,0.5833333333333334,8.0,1.0,7.0,1.0655103157894736,0.37103168421052635,1.0427120626048556,0.15811388300841894,0.09390631489191219,0.3249880672090763,0.7145120598777769,-1.9123501364485485,0.5297726528672032,0.5402516599634183,-0.26756403588955463,-0.5686041747498256,-1.0798246180707318
Encode-Decode_Experiment-11-1,2356991,encoding,0.951975,0.241379,0.166828,0.078313,29,7,False,0.12271,0.17492,14,20,37,34,0.9189,0.14964,1.0,6140.0,1.0,1.0,How is the player on the left (from your perspective) reaching the base?,1.0,6431.0,2.0,2.0,What is the current action of the gloved player on the base?,12.0,2.0,,,,,0.4,0.2857142857142857,0.4,6.0,2.0,4.0,0.8878508947368422,0.06412410526315782,0.9251084568846146,0.2485042976789582,-0.24180276893543723,0.05616654835105801,0.5292556028685531,0.10421280806302692,-0.7924450814112789,0.5402516599634183,-0.46887832525502326,-1.1548499538142492,0.4340781331895421
Encode-Decode_Experiment-11-1,2371471,encoding,1.885618,0.44,0.25408,0.098599,25,11,False,0.261174,0.606556,21,10,31,31,1.0,0.372587,0.0,4957.0,1.0,3.0,What is nearest to the motorcyclists?,1.0,6247.0,2.0,2.0,What stunt is one motorcyclist performing?,14.0,1.0,,,,,0.35,0.2,0.3333333333333333,7.0,1.0,5.0,1.6490495,0.23656849999999996,1.3372851002744826,0.20472363006229238,0.40502715582588167,0.2072112513548221,-0.5822831391867893,1.0023086608905318,0.8267106380847526,-1.6247274185664562,0.3936718022675764,0.8998218901006834,-0.2991818413161878
Encode-Decode_Experiment-11-1,2408717,encoding,-0.470886,0.16,0.19976,0.084437,25,4,False,0.350207,0.289281,8,19,34,27,0.7941,0.298228,1.0,3767.0,3.0,3.0,What are the surfers doing with the surfboards?,1.0,2533.0,2.0,2.0,How many surfers are in the scene?,16.0,2.0,,,,,0.6666666666666666,0.2,0.8888888888888888,10.0,1.0,8.0,0.5325437368421053,-1.0034297368421052,0.7943932270394137,0.15370663939515447,-1.2275640005580326,-0.8789079332949759,-0.026513768159118118,-1.2778138557208534,1.8678353432347563,0.5402516599634183,-0.871493664054608,-1.8064562654308993,-1.15363928366237
Encode-Decode_Experiment-11-1,2410309,encoding,-0.011677,0.136364,0.137364,0.085637,22,3,False,0.308537,0.292408,7,24,34,31,0.9118,0.315882,1.0,3041.0,4.0,4.0,How many laptops or electronic devices are visible?,1.0,3278.0,2.0,2.0,What is the baby touching?,17.0,2.0,,,,,0.6,0.42857142857142855,0.6666666666666666,9.0,3.0,6.0,0.31938894736842105,-0.33106594736842104,0.9809366432334214,0.24307399556567427,-0.9094229949277002,-0.2899819258911487,-0.026513768159118118,0.025587893697117132,1.3805590921413342,0.5402516599634183,-1.113029433525727,-0.8765503353683072,0.34312878486052656
Encode-Decode_Experiment-11-1,2349475,encoding,-0.11116,0.173913,0.184609,0.096219,23,4,False,0.062321,0.052886,7,20,35,27,0.7714,0.078727,1.0,4349.0,3.0,3.0,Which part of the blender is the woman holding?,1.0,3378.0,1.0,1.0,What is the man doing to power the blender?,19.0,2.0,,,,,0.6,0.5,0.7,12.0,5.0,7.0,1.3088556842105263,-1.4200156842105263,1.1799822407727656,0.15267227492053612,-0.9783450362272443,-1.243797153335026,0.15874268885010562,-1.5291921030597488,-1.498615600424494,0.5402516599634183,0.008182105935085504,0.1156780974603715,-1.1709633243766226
Encode-Decode_Experiment-11-1,2385851,encoding,-1.019643,0.086957,0.172261,0.083661,23,2,False,0.158952,0.177844,5,21,32,26,0.8125,0.207879,1.0,3774.0,3.0,3.0,Where are the men?,1.0,2739.0,2.0,2.0,What are the men doing with the suitcases?,20.0,2.0,,,,,0.4375,0.2857142857142857,0.5555555555555556,7.0,2.0,5.0,-0.21419211764705884,-0.8054508823529413,1.0009813005996218,0.19449276506277735,-1.60774405762722,-0.7054974996130026,-0.3970266821775656,-1.074053514265538,-0.36864220423038574,0.5402516599634183,-1.7176553649061905,-0.7766291152512862,-0.4705333582551447
Encode-Decode_Experiment-11-1,2387122,encoding,1.141207,0.47619,0.339095,0.120132,21,10,False,0.139046,0.109506,20,5,28,25,0.8929,0.136233,1.0,5174.0,3.0,3.0,Where is the polar bear located in the scene?,1.0,4770.0,1.0,1.0,What is the polar bear doing next to the enclosure edge?,21.0,2.0,,,,,0.6470588235294118,0.6,0.6666666666666666,11.0,3.0,8.0,0.8190727894736842,0.32213421052631586,0.8482144860695828,0.18033698569591206,-0.11070242295476374,0.28215858352805057,-1.1380525102144605,-0.183709413558615,-0.6014168875580955,0.5402516599634183,-0.5468140480155639,-1.5381610398114771,-0.7076212553274387
Encode-Decode_Experiment-11-1,2345035,encoding,0.405641,0.16129,0.131161,0.074275,31,5,False,0.213296,0.22694,7,27,37,34,0.9189,0.213018,1.0,3135.0,2.0,2.0,Who runs toward the football in the scene?,1.0,4557.0,3.0,3.0,What are the people doing with the football?,22.0,2.0,,,,,0.42857142857142855,0.2,0.4,9.0,1.0,6.0,0.21320105263157893,0.19243994736842104,0.9432952232240902,0.2041649823125105,-0.6203041662731246,0.1685588838111018,0.5292556028685531,0.10421280806302692,0.2668399313448709,0.5402516599634183,-1.2333559573965303,-1.0641901909944647,-0.30853834630029187
Encode-Decode_Experiment-11-1,2397102,encoding,0.749626,0.3,0.22015,0.10652,20,6,False,0.173613,0.169396,16,12,30,28,0.9333,0.165927,1.0,3272.0,1.0,1.0,What are the couple doing with the cake?,1.0,4218.0,3.0,3.0,What is the man holding besides the cake knife?,23.0,2.0,,,,,0.47619047619047616,0.4,0.3684210526315789,10.0,2.0,7.0,2.2877332105263157,-1.5381072105263156,1.077927015767692,0.2252856737283759,-0.3819906013783818,-1.3472339716024437,-0.7675395961960131,0.26367742311501274,-0.1972009487160912,0.5402516599634183,1.1173945103125122,-0.3930600872600747,0.0452012947837898
Encode-Decode_Experiment-11-1,2394020,encoding,1.411591,0.75,0.541625,0.147617,16,12,False,0.284873,,20,0,25,20,0.8,0.280133,1.0,4892.0,2.0,2.0,What are the riders wearing on their heads?,1.0,2807.0,1.0,1.0,Where is the scene taking place?,27.0,2.0,,,,,0.5,0.3333333333333333,0.4444444444444444,6.0,1.0,4.0,1.7388129473684213,-0.32722194736842125,1.1351067280700708,0.244497601875636,0.07662020719044639,-0.2866149516312287,-1.6938218812421317,-1.212477659275942,1.10383950476733,0.5402516599634183,0.4953870083112511,-0.10802320611946241,0.3669720376790687
Encode-Decode_Experiment-11-1,2374670,encoding,1.722857,0.44,0.25392,0.108007,25,11,False,0.236601,0.256587,19,14,35,33,0.9429,0.242823,1.0,4330.0,1.0,1.0,What vehicle sprays water in the scene?,0.0,6666.0,4.0,3.0,Where is the man standing relative to the vehicle?,29.0,1.0,,,,,0.3684210526315789,0.42857142857142855,0.36363636363636365,7.0,3.0,4.0,1.2780294736842106,0.4448275263157895,0.952351037069395,0.18321268886084818,0.29226597689123857,0.3896261267453816,0.15874268885010562,0.36998716648300284,0.5393614823823607,-1.6247274185664562,-0.02674853061189013,-1.019047590048775,-0.6594575761467123
Encode-Decode_Experiment-11-1,2385550,encoding,1.638093,0.285714,0.159679,0.076941,28,8,False,0.232533,0.234815,16,16,34,32,0.9412,0.232809,1.0,3325.0,4.0,4.0,Where are the tangerines in the scene?,1.0,5641.0,3.0,3.0,Which side of the frame is the boy on? (from your perspective),30.0,2.0,,,,,0.4,0.0,0.5,6.0,0.0,6.0,1.7045187368421055,-0.06642573684210551,1.2643407562442195,0.18372408348547578,0.23354129117896044,-0.05818255622882503,-0.026513768159118118,0.35116148276158865,0.4917915330315556,0.5402516599634183,0.4565266170043935,0.5361994183876002,-0.6508924895495848
Encode-Decode_Experiment-11-1,2412687,encoding,0.152419,0.357143,0.334429,0.149025,14,5,False,0.098331,0.218764,12,12,29,24,0.8276,0.141215,1.0,3151.0,4.0,4.0,What is the dog biting onto in the scene?,1.0,5574.0,3.0,3.0,What is the human's body position?,34.0,2.0,,,,,0.4666666666666667,0.5,0.5555555555555556,7.0,2.0,5.0,1.430236875,-1.277817875,1.2173561924649592,0.3066847820736392,-0.7957369250555613,-1.119245549945617,-0.9527960532052369,-0.9068371470929691,-1.0775256603747188,0.5402516599634183,0.14572487187080357,0.3019846421646819,1.4085132623545216
Encode-Decode_Experiment-11-1,2409918,encoding,0.354383,0.36,0.32392,0.101811,25,9,False,0.147662,0.187722,21,12,35,33,0.9429,0.172968,1.0,3977.0,4.0,4.0,Where are the elephants in the scene?,1.0,4189.0,2.0,2.0,What is the elephant on the right (from your perspective) doing with its trunk?,35.0,2.0,,,,,0.6875,0.6666666666666666,0.7,11.0,4.0,7.0,2.2261904736842104,-1.8718074736842105,1.4272966719417661,0.13819269959814168,-0.6558158214597598,-1.639523304740122,0.15874268885010562,0.36998716648300284,-0.5006640154817596,0.5402516599634183,1.0476575255831513,1.3485233022191871,-1.413474314037984
Encode-Decode_Experiment-11-1,2347025,encoding,0.686526,0.75,0.6718,0.113907,20,15,False,0.137319,0.055183,30,1,32,31,0.9688,0.13769,1.0,4062.0,1.0,1.0,Where is the baby in relation to the mother?,0.0,4582.0,3.0,2.0,Who is holding the umbrella in the scene?,43.0,1.0,,,,,0.6,0.5,0.5833333333333334,9.0,2.0,7.0,0.9090625789473684,-0.22253657894736845,1.2455567310475317,0.17505220608093222,-0.4257064202218147,-0.19492063819107525,-0.3970266821775656,0.6568019949445617,-0.6216118980125794,-1.6247274185664562,-0.4448423630314282,0.4425623617858342,-0.7961333218787808
Encode-Decode_Experiment-11-1,2348899,encoding,3.835123,0.52,0.19808,0.08394,25,13,False,0.194244,0.172049,21,11,32,32,1.0,0.186614,1.0,3377.0,4.0,4.0,What is the woman doing?,1.0,9406.0,1.0,1.0,Where is the woman located relative to the man? (from your perspective),46.0,2.0,,,,,0.6086956521739131,0.5,0.6470588235294118,14.0,3.0,11.0,3.229555894736842,0.6055671052631579,1.3986784428233952,0.14300788145883045,1.7556485094608523,0.5304185369603149,-0.3970266821775656,1.0023086608905318,0.04405166314636142,0.5402516599634183,2.1846183212240127,1.2058634243847102,-1.332827299713674
Encode-Decode_Experiment-11-1,2379478,encoding,-0.019075,0.285714,0.288429,0.142295,14,4,False,0.4593,0.376932,10,7,18,17,0.9444,0.444714,1.0,2193.0,2.0,2.0,How many babies are visible in the scene?,1.0,5005.0,4.0,4.0,What is the position of the babies?,47.0,2.0,,,,,0.6923076923076923,0.8,0.5,9.0,4.0,5.0,2.2212703888888887,-2.2403453888888887,1.1569489487697493,0.3220626180864117,-0.9145483456060476,-1.962327070166452,-2.990617080306698,0.38659806388425205,3.1435355606701947,0.5402516599634183,1.0420823448901182,0.0008587419480210054,1.666068760169417
Encode-Decode_Experiment-12-1,2348899,encoding,1.566717,0.75,0.496167,0.162016,12,9,False,0.211917,,26,0,26,26,1.0,0.211917,1.0,4705.0,4.0,4.0,What is the woman doing?,1.0,6461.0,1.0,1.0,Where is the woman located relative to the man? (from your perspective),1.0,2.0,,,,,0.43478260869565216,0.16666666666666666,0.5294117647058824,10.0,1.0,9.0,3.229555894736842,-1.662838894736842,1.3986784428233952,0.14300788145883045,0.18409184132525408,-1.456486929493531,-1.508565424232908,1.0023086608905318,0.25071432658706333,0.5402516599634183,2.1846183212240127,1.2058634243847102,-1.332827299713674
Encode-Decode_Experiment-12-1,2362704,encoding,0.488559,0.166667,0.130375,0.074283,24,4,False,0.241483,0.322712,9,20,30,29,0.9667,0.298547,1.0,4769.0,4.0,4.0,What are the bears doing with the pumpkins?,1.0,1435.0,2.0,2.0,How many bears are in the scene?,3.0,2.0,,,,,0.5555555555555556,0.2,0.5714285714285714,5.0,1.0,4.0,0.16786689473684208,0.32069210526315794,1.0466965314202636,0.19013005864288826,-0.562858393422732,0.28089543802827216,-0.7675395961960131,0.6335467385828137,0.5964500990811389,0.5402516599634183,-1.2847262350124706,-0.5487418753709831,-0.5436020932098877
Encode-Decode_Experiment-12-1,2412687,encoding,1.598289,0.6,0.370667,0.143487,15,9,False,0.115768,0.140906,17,7,31,24,0.7742,0.118383,1.0,4546.0,4.0,4.0,What is the dog biting onto in the scene?,1.0,3800.0,3.0,3.0,What is the human's body position?,4.0,2.0,,,,,0.06666666666666667,0.0,0.1111111111111111,1.0,0.0,1.0,1.430236875,0.168052125,1.2173561924649592,0.3066847820736392,0.20596499239537883,0.14719749719039935,-0.5822831391867893,-1.4981850945774178,-0.8736227088432572,0.5402516599634183,0.14572487187080357,0.3019846421646819,1.4085132623545216
Encode-Decode_Experiment-12-1,2379478,encoding,2.782982,0.722222,0.341778,0.136704,18,13,False,0.388866,0.249042,29,4,33,33,1.0,0.371917,1.0,2555.0,2.0,2.0,How many babies are visible in the scene?,1.0,4318.0,4.0,4.0,What is the position of the babies?,5.0,2.0,,,,,0.5384615384615384,0.4,0.5,7.0,2.0,5.0,2.2212703888888887,0.5617116111111113,1.1569489487697493,0.3220626180864117,1.026722909559928,0.4920053423801842,-0.21177022516834185,1.0023086608905318,2.3199018800963023,0.5402516599634183,1.0420823448901182,0.0008587419480210054,1.666068760169417
Encode-Decode_Experiment-12-1,2374670,encoding,0.249412,0.318182,0.289955,0.113175,22,7,False,0.15559,0.127896,18,14,33,32,0.9697,0.139603,0.0,5477.0,4.0,1.0,What vehicle sprays water in the scene?,1.0,3700.0,3.0,3.0,Where is the man standing relative to the vehicle?,6.0,1.0,,,,,0.3684210526315789,0.2857142857142857,0.45454545454545453,7.0,2.0,5.0,1.2780294736842106,-1.0286174736842106,0.952351037069395,0.18321268886084818,-0.7285399612349419,-0.9009699680538242,-0.21177022516834185,0.666768533385311,-0.4079564052425309,-1.6247274185664562,-0.02674853061189013,-1.019047590048775,-0.6594575761467123
Encode-Decode_Experiment-12-1,2347400,encoding,1.382448,0.263158,0.141895,0.087716,19,5,False,0.173668,0.287058,14,13,30,27,0.9,0.223652,1.0,7922.0,3.0,3.0,What are the men doing with the wine?,1.0,2618.0,1.0,1.0,What are the men sitting on in the scene?,7.0,2.0,,,,,0.5,0.375,0.5833333333333334,10.0,3.0,7.0,1.0655103157894736,0.31693768421052626,1.0427120626048556,0.15811388300841894,0.05642987266502371,0.2776069263099804,-0.7675395961960131,-0.10508449919270521,-0.1965577955169038,0.5402516599634183,-0.26756403588955463,-0.5686041747498256,-1.0798246180707318
Encode-Decode_Experiment-12-1,2408717,encoding,0.357366,0.217391,0.185,0.090639,23,5,False,0.307717,0.204369,11,19,32,30,0.9375,0.248498,1.0,5172.0,2.0,2.0,How many surfers are in the scene?,1.0,4703.0,3.0,3.0,What are the surfers doing with the surfboards?,8.0,2.0,,,,,0.4666666666666667,0.4,0.4444444444444444,7.0,2.0,4.0,0.5325437368421053,-0.1751777368421053,0.7943932270394137,0.15370663939515447,-0.6537491924960519,-0.15343884777795172,-0.3970266821775656,0.31018793583850846,1.370970262626177,0.5402516599634183,-0.871493664054608,-1.8064562654308993,-1.15363928366237
Encode-Decode_Experiment-12-1,2410309,encoding,0.27344,0.3,0.26725,0.11977,20,6,False,0.422645,0.22628,14,14,29,28,0.9655,0.320055,1.0,3377.0,4.0,4.0,How many laptops or electronic devices are visible?,1.0,4521.0,2.0,2.0,What is the baby touching?,12.0,2.0,,,,,0.5333333333333333,0.42857142857142855,0.5555555555555556,8.0,3.0,5.0,0.31938894736842105,-0.045948947368421034,0.9809366432334214,0.24307399556567427,-0.7118933099644188,-0.04024685823618691,-0.9527960532052369,0.6202580206618151,2.714903187648131,0.5402516599634183,-1.113029433525727,-0.8765503353683072,0.34312878486052656
Encode-Decode_Experiment-12-1,2371471,encoding,3.127066,0.64,0.30496,0.107142,25,16,False,0.410398,0.467525,25,6,31,31,1.0,0.421455,1.0,14130.0,2.0,2.0,What stunt is one motorcyclist performing?,0.0,7842.0,1.0,3.0,What is nearest to the motorcyclists?,13.0,1.0,,,,,0.35,0.2,0.3333333333333333,7.0,1.0,5.0,1.6490495,1.4780165,1.3372851002744826,0.20472363006229238,1.2651050618725075,1.2946002890836037,-0.5822831391867893,1.0023086608905318,2.571690510730897,-1.6247274185664562,0.3936718022675764,0.8998218901006834,-0.2991818413161878
Encode-Decode_Experiment-12-1,2356991,encoding,-0.476864,0.166667,0.2155,0.102405,24,4,False,0.14828,0.172787,7,23,30,30,1.0,0.167069,1.0,6140.0,1.0,1.0,How is the player on the left (from your perspective) reaching the base?,0.0,10852.0,1.0,2.0,What is the current action of the gloved player on the base?,14.0,1.0,,,,,0.4,0.2857142857142857,0.4,6.0,2.0,4.0,0.8878508947368422,-1.3647148947368422,0.9251084568846146,0.2485042976789582,-1.2317055721118526,-1.1953589809335792,-0.7675395961960131,1.0023086608905318,-0.4934373122617995,-1.6247274185664562,-0.46887832525502326,-1.1548499538142492,0.4340781331895421
Encode-Decode_Experiment-12-1,2349475,encoding,0.903512,0.285714,0.19619,0.099084,21,6,False,0.06314,0.06219,12,15,30,27,0.9,0.073385,1.0,4695.0,1.0,1.0,What is the man doing to power the blender?,1.0,4553.0,3.0,3.0,Which part of the blender is the woman holding?,15.0,2.0,,,,,0.55,0.3,0.8,11.0,3.0,8.0,1.3088556842105263,-0.40534368421052636,1.1799822407727656,0.15267227492053612,-0.2753780419720345,-0.35504207886526323,-0.7675395961960131,-0.10508449919270521,-1.4890384646038675,0.5402516599634183,0.008182105935085504,0.1156780974603715,-1.1709633243766226
Encode-Decode_Experiment-12-1,2370664,encoding,1.792974,0.36,0.20424,0.086872,25,9,False,0.158935,0.098141,17,15,32,32,1.0,0.130438,1.0,3163.0,1.0,1.0,Where are the people located in the scene?,1.0,2855.0,4.0,4.0,How many donuts are in the scene?,16.0,2.0,,,,,0.4117647058823529,0.2857142857142857,0.3333333333333333,7.0,2.0,4.0,0.856098157894737,0.9368758421052631,1.4260301774759678,0.25342910195739954,0.3408431887746773,0.8206131230773933,-0.3970266821775656,1.0023086608905318,-0.3688409970374075,0.5402516599634183,-0.5048588525746718,1.3422099155654739,0.5165611572328062
Encode-Decode_Experiment-12-1,2394020,encoding,3.928929,0.782609,0.335478,0.113805,23,18,False,0.297217,0.201905,26,2,31,28,0.9032,0.305749,1.0,2564.0,2.0,2.0,What are the riders wearing on their heads?,1.0,6988.0,1.0,1.0,Where is the scene taking place?,17.0,2.0,,,,,0.5833333333333334,0.3333333333333333,0.6666666666666666,7.0,1.0,6.0,1.7388129473684213,2.190116052631579,1.1351067280700708,0.244497601875636,1.820637512668888,1.9183310029783043,-0.5822831391867893,-0.06964791807004184,1.2481864700540404,0.5402516599634183,0.4953870083112511,-0.10802320611946241,0.3669720376790687
Encode-Decode_Experiment-12-1,2345035,encoding,-0.513364,0.315789,0.383895,0.132665,19,6,False,0.180412,0.292083,14,13,34,27,0.7941,0.226322,1.0,3588.0,2.0,2.0,Who runs toward the football in the scene?,0.0,8018.0,2.0,3.0,What are the people doing with the football?,18.0,1.0,,,,,0.38095238095238093,0.2,0.4666666666666667,8.0,1.0,7.0,0.21320105263157893,-0.726565052631579,0.9432952232240902,0.2041649823125105,-1.2569928524254073,-0.6364011005119942,-0.026513768159118118,-1.2778138557208534,-0.11769551960200005,-1.6247274185664562,-1.2333559573965303,-1.0641901909944647,-0.30853834630029187
Encode-Decode_Experiment-12-1,2369373,encoding,2.49022,0.647059,0.327706,0.128243,17,11,False,0.229375,0.075314,21,2,24,23,0.9583,0.21144,1.0,2801.0,3.0,3.0,What tool is the chef using?,1.0,4471.0,3.0,3.0,What is the appearance of the oven?,20.0,2.0,,,,,0.4,0.3333333333333333,0.4166666666666667,6.0,1.0,5.0,1.1629837777777778,1.327236222222222,1.2855118171843671,0.32509425480897675,0.8238967517748074,1.1625312687450502,-1.8790783382513554,0.5405257131358223,0.45486284570366925,0.5402516599634183,-0.15711224776651309,0.6417356818249813,1.7168440906272031
Encode-Decode_Experiment-12-1,2360001,encoding,1.04886,0.333333,0.215133,0.112694,15,5,False,0.338907,0.117954,9,14,23,23,1.0,0.204414,1.0,4385.0,4.0,4.0,What are the workers doing to the clock?,1.0,5966.0,4.0,4.0,Where are the men standing?,21.0,2.0,,,,,0.5333333333333333,0.5,0.5454545454545454,8.0,2.0,6.0,1.1830057368421052,-0.1341457368421053,1.3129750282741623,0.25744281524041096,-0.17468062775245796,-0.11749876249360039,-2.0643347952605793,1.0023086608905318,1.7356965950380763,0.5402516599634183,-0.13442441935382524,0.7786378752768329,0.5837847849157684
Encode-Decode_Experiment-12-1,2344622,encoding,1.079607,0.277778,0.175444,0.094788,18,5,False,0.195878,0.182635,17,15,32,32,1.0,0.18967,1.0,3553.0,4.0,4.0,What is the cat resting its head on?,1.0,2338.0,2.0,2.0,Where is the cat located?,22.0,2.0,,,,,0.42857142857142855,0.4,0.4444444444444444,6.0,2.0,4.0,0.41730294736842105,0.6623040526315789,0.9118099608916732,0.23840831546663313,-0.15337903849763965,0.5801146455388585,-0.3970266821775656,1.0023086608905318,0.06315916000949198,0.5402516599634183,-1.002078450953905,-1.2211420296058102,0.26498569895718416
Encode-Decode_Experiment-12-1,2385550,encoding,0.806193,0.230769,0.163308,0.083679,26,6,False,0.187256,0.225803,11,21,32,32,1.0,0.212552,1.0,4594.0,3.0,3.0,Which side of the frame is the boy on? (from your perspective),1.0,2877.0,4.0,4.0,Where are the tangerines in the scene?,23.0,2.0,,,,,0.4666666666666667,0.3333333333333333,0.5,7.0,1.0,6.0,1.7045187368421055,-0.8983257368421055,1.2643407562442195,0.18372408348547578,-0.342800859309975,-0.7868469388582814,-0.3970266821775656,1.0023086608905318,-0.037663874234028116,0.5402516599634183,0.4565266170043935,0.5361994183876002,-0.6508924895495848
Encode-Decode_Experiment-12-1,2409918,encoding,2.437274,0.8125,0.475812,0.138141,16,13,False,0.105191,,29,0,31,29,0.9355,0.116702,0.0,7279.0,3.0,2.0,What is the elephant on the right (from your perspective) doing with its trunk?,1.0,3754.0,4.0,4.0,Where are the elephants in the scene?,25.0,1.0,,,,,0.5625,0.3333333333333333,0.7,9.0,2.0,7.0,2.2261904736842104,0.21108352631578953,1.4272966719417661,0.13819269959814168,0.7872156464739453,0.18488886571239738,-0.5822831391867893,0.2880400726368437,-0.9973069158942561,-1.6247274185664562,1.0476575255831513,1.3485233022191871,-1.413474314037984
Encode-Decode_Experiment-12-1,2347025,encoding,0.835642,0.722222,0.614611,0.128777,18,13,False,0.083014,0.033475,26,1,28,27,0.9643,0.080254,1.0,3188.0,1.0,1.0,Where is the baby in relation to the mother?,1.0,4422.0,2.0,2.0,Who is holding the umbrella in the scene?,26.0,2.0,,,,,0.4666666666666667,0.5,0.4166666666666667,7.0,2.0,5.0,0.9090625789473684,-0.07342057894736842,1.2455567310475317,0.17505220608093222,-0.3223985273112388,-0.06430936510515864,-1.1380525102144605,0.6069693027408165,-1.2566379795011393,0.5402516599634183,-0.4448423630314282,0.4425623617858342,-0.7961333218787808
Encode-Decode_Experiment-12-1,2383555,encoding,0.882377,0.375,0.277958,0.109978,24,9,False,0.206303,0.170577,16,15,32,31,0.9688,0.185409,0.0,2500.0,3.0,2.0,Who is holding the child in the boat?,1.0,5224.0,4.0,4.0,What is the woman at the back doing in the boat?,27.0,1.0,,,,,0.3333333333333333,0.3333333333333333,0.36363636363636365,6.0,2.0,4.0,0.1691180625,0.7132589375,0.9947364561235617,0.29166666666666663,-0.29002041647688326,0.6247462235225141,-0.3970266821775656,0.6568019949445617,0.18506592549182754,-1.6247274185664562,-1.2833084776674069,-0.8077592297795172,1.1569825406930536
Encode-Decode_Experiment-12-1,2387122,encoding,0.35523,0.470588,0.420118,0.142078,17,8,False,0.131836,0.071836,19,6,26,25,0.9615,0.122484,1.0,3195.0,3.0,3.0,Where is the polar bear located in the scene?,1.0,6460.0,1.0,1.0,What is the polar bear doing next to the enclosure edge?,32.0,2.0,,,,,0.47058823529411764,0.2,0.5833333333333334,8.0,1.0,7.0,0.8190727894736842,-0.46384278947368424,0.8482144860695828,0.18033698569591206,-0.6552290179960453,-0.4062816682641748,-1.508565424232908,0.5759622942584857,-0.685728425124296,0.5402516599634183,-0.5468140480155639,-1.5381610398114771,-0.7076212553274387
Encode-Decode_Experiment-12-1,2411268,encoding,3.118175,0.777778,0.384611,0.126089,18,14,False,0.151452,0.139584,24,2,28,26,0.9286,0.14773,1.0,7147.0,2.0,2.0,What is the child holding while picking fruit?,1.0,5309.0,4.0,4.0,Where is the fruit branch relative to the child?,35.0,2.0,,,,,0.6875,0.3333333333333333,0.9,11.0,2.0,9.0,1.8709475882352942,1.2472274117647058,1.2676663714699867,0.29500669857798545,1.2589453575090055,1.0924512465345162,-1.1380525102144605,0.21162994459110016,-0.4563449132104834,0.5402516599634183,0.6451150169305943,0.5527773785356611,1.2129230241864954
Encode-Decode_Experiment-12-1,2397102,encoding,1.238677,0.428571,0.28519,0.115753,21,9,False,0.085259,0.18614,19,10,31,29,0.9355,0.118279,1.0,2848.0,3.0,3.0,What is the man holding besides the cake knife?,1.0,2213.0,1.0,1.0,What are the couple doing with the cake?,46.0,2.0,,,,,0.38095238095238093,0.4,0.3157894736842105,8.0,2.0,6.0,2.2877332105263157,-1.0490562105263157,1.077927015767692,0.2252856737283759,-0.04317499248456719,-0.9188723356013401,-0.5822831391867893,0.2880400726368437,-1.2303856352797635,0.5402516599634183,1.1173945103125122,-0.3930600872600747,0.0452012947837898
Encode-Decode_Experiment-12-1,2385851,encoding,-1.348958,0.0,0.113294,0.083986,17,0,False,,0.143996,0,21,22,21,0.9545,0.147182,1.0,2616.0,2.0,2.0,What are the men doing with the suitcases?,0.0,5927.0,4.0,3.0,Where are the men?,48.0,1.0,,,,,0.8125,0.5714285714285714,1.0,13.0,4.0,9.0,-0.21419211764705884,-1.1347658823529412,1.0009813005996218,0.19449276506277735,-1.8358942142425145,-0.993945764026537,-2.249591252269803,0.498444773052659,,-1.6247274185664562,-1.7176553649061905,-0.7766291152512862,-0.4705333582551447
Encode-Decode_Experiment-12-1,150472,encoding,0.958904,0.458333,0.354917,0.107849,24,11,False,0.09993,0.108113,18,9,29,27,0.931,0.11259,1.0,1991.0,4.0,4.0,How many women are in the scene?,1.0,4824.0,2.0,2.0,Where is the pizza slice located?,49.0,2.0,,,,,0.625,0.25,0.8,10.0,1.0,8.0,0.927113294117647,0.031790705882353,1.5219880912509123,0.1424009588740023,-0.23700234248906407,0.02784560052304289,-0.9527960532052369,0.2382073804330986,-1.0588274428201618,0.5402516599634183,-0.4243882442714296,1.8205534287074945,-1.3429923351803472
Encode-Decode_Experiment-13-1,2383555,encoding,-0.941434,0.043478,0.111478,0.07223,23,1,False,0.250284,0.2218,2,24,33,26,0.7879,0.198782,0.0,6222.0,3.0,2.0,Who is holding the child in the boat?,1.0,3642.0,4.0,4.0,What is the woman at the back doing in the boat?,1.0,1.0,,,,,0.3888888888888889,0.3333333333333333,0.45454545454545453,7.0,2.0,5.0,0.1691180625,-1.1105520625,0.9947364561235617,0.29166666666666663,-1.5535606903383758,-0.9727367868727395,-0.21177022516834185,-1.3464722316460138,0.6993663046456509,-1.6247274185664562,-1.2833084776674069,-0.8077592297795172,1.1569825406930536
Encode-Decode_Experiment-13-1,2362704,encoding,-0.569881,0.074074,0.113481,0.06915,27,2,False,0.357824,0.25117,3,30,33,33,1.0,0.260866,1.0,4661.0,4.0,4.0,What are the bears doing with the pumpkins?,1.0,1935.0,2.0,2.0,How many bears are in the scene?,2.0,2.0,,,,,0.4444444444444444,0.2,0.42857142857142855,4.0,1.0,3.0,0.16786689473684208,-0.7377478947368421,1.0466965314202636,0.19013005864288826,-1.2961479543837955,-0.6461961945601661,-0.21177022516834185,1.0023086608905318,1.9569062144749434,0.5402516599634183,-1.2847262350124706,-0.5487418753709831,-0.5436020932098877
Encode-Decode_Experiment-13-1,2408717,encoding,0.977161,0.291667,0.207042,0.086603,24,7,False,0.27242,0.165683,15,13,38,28,0.7368,0.225013,1.0,5354.0,3.0,3.0,What are the surfers doing with the surfboards?,1.0,3379.0,2.0,2.0,How many surfers are in the scene?,3.0,2.0,,,,,0.4,0.2,0.4444444444444444,6.0,1.0,4.0,0.5325437368421053,0.4446172631578946,0.7943932270394137,0.15370663939515447,-0.22435385271688416,0.38944195644349777,0.7145120598777769,-1.9123501364485485,0.9582179267767761,0.5402516599634183,-0.871493664054608,-1.8064562654308993,-1.15363928366237
Encode-Decode_Experiment-13-1,2356991,encoding,1.402613,0.307692,0.182385,0.089339,26,8,False,0.119732,0.180797,14,16,33,30,0.9091,0.156088,1.0,11044.0,2.0,2.0,What is the current action of the gloved player on the base?,1.0,8942.0,1.0,1.0,How is the player on the left (from your perspective) reaching the base?,4.0,2.0,,,,,0.6666666666666666,0.8571428571428571,0.4,10.0,6.0,4.0,0.8878508947368422,0.5147621052631579,0.9251084568846146,0.2485042976789582,0.07040022903551235,0.45088209115593003,-0.21177022516834185,-0.004311721625130666,-0.8272689037236429,0.5402516599634183,-0.46887832525502326,-1.1548499538142492,0.4340781331895421
Encode-Decode_Experiment-13-1,2349475,encoding,1.996356,0.458333,0.248625,0.105046,24,11,False,0.100344,0.047474,20,8,35,28,0.8,0.095884,1.0,7850.0,3.0,3.0,Which part of the blender is the woman holding?,1.0,3279.0,1.0,1.0,What is the man doing to power the blender?,5.0,2.0,,,,,0.55,0.3,0.7,11.0,3.0,7.0,1.3088556842105263,0.6875003157894737,1.1799822407727656,0.15267227492053612,0.48174668589060543,0.6021841485302237,0.15874268885010562,-1.212477659275942,-1.0539862532844606,0.5402516599634183,0.008182105935085504,0.1156780974603715,-1.1709633243766226
Encode-Decode_Experiment-13-1,2385851,encoding,-0.567677,0.090909,0.136545,0.080391,22,2,False,0.103798,0.287702,5,23,30,28,0.9333,0.256344,1.0,4739.0,2.0,2.0,What are the men doing with the suitcases?,0.0,5823.0,4.0,3.0,Where are the men?,7.0,1.0,,,,,0.4375,0.42857142857142855,0.4444444444444444,7.0,3.0,4.0,-0.21419211764705884,-0.3534848823529412,1.0009813005996218,0.19449276506277735,-1.294621018334177,-0.3096187565435171,-0.7675395961960131,0.26367742311501274,-1.013596232375493,-1.6247274185664562,-1.7176553649061905,-0.7766291152512862,-0.4705333582551447
Encode-Decode_Experiment-13-1,2345035,encoding,0.447078,0.428571,0.371048,0.128666,21,9,False,0.15256,0.144497,16,10,35,26,0.7429,0.163761,0.0,6182.0,2.0,3.0,What are the people doing with the football?,1.0,5894.0,2.0,2.0,Who runs toward the football in the scene?,8.0,1.0,,,,,0.42857142857142855,0.6,0.3333333333333333,9.0,3.0,5.0,0.21320105263157893,0.23387694736842105,0.9432952232240902,0.2041649823125105,-0.5915965214963365,0.20485371014000767,0.15874268885010562,-1.8447991536834711,-0.44338829967049037,-1.6247274185664562,-1.2333559573965303,-1.0641901909944647,-0.30853834630029187
Encode-Decode_Experiment-13-1,2347025,encoding,0.571459,0.727273,0.664545,0.109767,22,16,False,0.091097,0.035702,26,4,30,30,1.0,0.083711,1.0,3674.0,1.0,1.0,Where is the baby in relation to the mother?,1.0,3658.0,2.0,2.0,Who is holding the umbrella in the scene?,11.0,2.0,,,,,0.4666666666666667,0.75,0.3333333333333333,7.0,3.0,4.0,0.9090625789473684,-0.33760357894736837,1.2455567310475317,0.17505220608093222,-0.5054250910119461,-0.29570826232381187,-0.7675395961960131,1.0023086608905318,-1.1621178466096556,0.5402516599634183,-0.4448423630314282,0.4425623617858342,-0.7961333218787808
Encode-Decode_Experiment-13-1,2410309,encoding,0.80925,0.15,0.0894,0.074884,20,3,False,0.2882,0.303889,6,17,23,23,1.0,0.299796,1.0,4719.0,2.0,2.0,What is the baby touching?,1.0,3730.0,4.0,4.0,How many laptops or electronic devices are visible?,12.0,2.0,,,,,0.6666666666666666,0.5714285714285714,0.6666666666666666,10.0,4.0,6.0,0.31938894736842105,0.489861052631579,0.9809366432334214,0.24307399556567427,-0.34068296298343975,0.42907116419041363,-2.0643347952605793,1.0023086608905318,1.1427444264709017,0.5402516599634183,-1.113029433525727,-0.8765503353683072,0.34312878486052656
Encode-Decode_Experiment-13-1,2347400,encoding,-0.285091,0.25,0.2829,0.115402,20,5,False,0.19563,0.194686,11,18,33,29,0.8788,0.201439,1.0,4850.0,3.0,3.0,What are the men doing with the wine?,1.0,2984.0,1.0,1.0,What are the men sitting on in the scene?,13.0,2.0,,,,,0.4,0.25,0.5,8.0,2.0,6.0,1.0655103157894736,-1.3506013157894736,1.0427120626048556,0.15811388300841894,-1.0988448157400357,-1.1829968433084124,-0.21177022516834185,-0.33985184913035144,0.060259123765883445,0.5402516599634183,-0.26756403588955463,-0.5686041747498256,-1.0798246180707318
Encode-Decode_Experiment-13-1,2367132,encoding,3.972417,0.461538,0.134923,0.082221,26,12,False,0.095807,0.137473,26,8,36,34,0.9444,0.10363,1.0,3504.0,2.0,2.0,How many men are playing in the scene?,0.0,15044.0,2.0,4.0,In which hand(s) are the men holding the controllers?,15.0,1.0,,,,,0.7058823529411765,0.6,0.6923076923076923,12.0,3.0,9.0,3.1585223333333334,0.8138946666666667,1.3235998062047658,0.16622507480397908,1.850766094758638,0.712893442495581,0.34399914585932934,0.38659806388425205,-1.1070405453701542,-1.6247274185664562,2.10412683447753,0.831601652851223,-0.943974421785478
Encode-Decode_Experiment-13-1,2397102,encoding,2.18961,0.32,0.14304,0.080818,25,8,False,0.086902,0.131221,15,15,33,30,0.9091,0.109785,1.0,3084.0,1.0,1.0,What are the couple doing with the cake?,1.0,5802.0,3.0,3.0,What is the man holding besides the cake knife?,16.0,2.0,,,,,0.8571428571428571,0.8,0.7368421052631579,18.0,4.0,14.0,2.2877332105263157,-0.09812321052631567,1.077927015767692,0.2252856737283759,0.6156334823211725,-0.08594649431395358,-0.21177022516834185,-0.004311721625130666,-1.211172895165857,0.5402516599634183,1.1173945103125122,-0.3930600872600747,0.0452012947837898
Encode-Decode_Experiment-13-1,2379478,encoding,3.470931,0.5,0.214687,0.082201,32,16,False,0.359212,0.372775,23,12,35,35,1.0,0.363862,0.0,3873.0,3.0,4.0,What is the position of the babies?,1.0,3325.0,2.0,2.0,How many babies are visible in the scene?,17.0,1.0,,,,,0.7692307692307693,1.0,0.5,10.0,5.0,5.0,2.2212703888888887,1.2496606111111115,1.1569489487697493,0.3220626180864117,1.5033354905032055,1.0945824951215617,0.15874268885010562,1.0023086608905318,1.9731370624835267,-1.6247274185664562,1.0420823448901182,0.0008587419480210054,1.666068760169417
Encode-Decode_Experiment-13-1,2394020,encoding,2.328615,0.764706,0.460882,0.130474,17,13,False,0.215258,0.250507,25,1,31,26,0.8387,0.216909,0.0,5040.0,1.0,2.0,What are the riders wearing on their heads?,0.0,10517.0,4.0,1.0,Where is the scene taking place?,19.0,0.0,,,,,0.5,0.3333333333333333,0.4444444444444444,6.0,1.0,4.0,1.7388129473684213,0.5898020526315788,1.1351067280700708,0.244497601875636,0.7119364521837936,0.5166098672368981,-0.5822831391867893,-0.7839165063237299,0.2897829600140643,-3.7897064970963306,0.4953870083112511,-0.10802320611946241,0.3669720376790687
Encode-Decode_Experiment-13-1,150472,encoding,-0.511376,0.2,0.25465,0.106869,20,4,False,0.068257,0.077041,10,20,31,30,0.9677,0.077114,1.0,3206.0,2.0,2.0,Where is the pizza slice located?,1.0,3176.0,4.0,4.0,How many women are in the scene?,22.0,2.0,,,,,0.625,0.5,0.7,10.0,2.0,7.0,0.927113294117647,-1.438489294117647,1.5219880912509123,0.1424009588740023,-1.2556155616510691,-1.259978258705755,-0.5822831391867893,0.6446206701836462,-1.4292018296903795,0.5402516599634183,-0.4243882442714296,1.8205534287074945,-1.3429923351803472
Encode-Decode_Experiment-13-1,2356125,encoding,2.12238,0.454545,0.247909,0.097361,22,10,False,0.293852,0.291583,19,8,33,27,0.8182,0.293749,1.0,6255.0,1.0,1.0,Where is the luggage being moved to?,1.0,5479.0,2.0,2.0,How many uniformed staff are moving the luggage?,24.0,2.0,,,,,0.45,0.5714285714285714,0.38461538461538464,9.0,4.0,5.0,0.7890656111111112,1.333314388888889,0.9652975669112814,0.30561199716381804,0.569056390390206,1.1678551581087788,-0.21177022516834185,-1.010932104140793,1.208837187958303,0.5402516599634183,-0.5808166004956525,-0.9545100409927323,1.390545737452591
Encode-Decode_Experiment-13-1,2360001,encoding,0.852272,0.178571,0.120893,0.067676,28,5,False,0.281527,0.329262,12,22,34,34,1.0,0.312414,0.0,6756.0,2.0,4.0,Where are the men standing?,1.0,4500.0,4.0,4.0,What are the workers doing to the clock?,25.0,1.0,,,,,0.6,0.75,0.5454545454545454,9.0,3.0,6.0,1.1830057368421052,-0.33073373684210516,1.3129750282741623,0.25744281524041096,-0.31087722671906304,-0.2896909414241924,-0.026513768159118118,1.0023086608905318,1.0647124028676762,-1.6247274185664562,-0.13442441935382524,0.7786378752768329,0.5837847849157684
Encode-Decode_Experiment-13-1,2371471,encoding,2.665161,0.521739,0.247565,0.102873,23,12,False,0.265591,0.546979,24,8,32,32,1.0,0.335938,0.0,7127.0,1.0,3.0,What is nearest to the motorcyclists?,1.0,6087.0,2.0,2.0,What stunt is one motorcyclist performing?,26.0,1.0,,,,,0.5,0.6,0.4,10.0,3.0,6.0,1.6490495,1.0161114999999998,1.3372851002744826,0.20472363006229238,0.9450962615099736,0.8900159380096053,-0.3970266821775656,1.0023086608905318,0.8783616868267649,-1.6247274185664562,0.3936718022675764,0.8998218901006834,-0.2991818413161878
Encode-Decode_Experiment-13-1,2348899,encoding,2.057856,0.47619,0.250286,0.109777,21,10,False,0.15063,0.129168,22,8,30,30,1.0,0.144907,1.0,6089.0,4.0,4.0,What is the woman doing?,1.0,6644.0,1.0,1.0,Where is the woman located relative to the man? (from your perspective),27.0,2.0,,,,,0.6086956521739131,0.3333333333333333,0.7058823529411765,14.0,2.0,12.0,3.229555894736842,-1.1716998947368418,1.3986784428233952,0.14300788145883045,0.5243540212134442,-1.0262964063293902,-0.7675395961960131,1.0023086608905318,-0.46595713011470236,0.5402516599634183,2.1846183212240127,1.2058634243847102,-1.332827299713674
Encode-Decode_Experiment-13-1,2369373,encoding,0.563401,0.444444,0.366222,0.138839,18,8,False,0.227792,0.204199,19,7,28,26,0.9286,0.213981,1.0,4028.0,3.0,3.0,What tool is the chef using?,1.0,4322.0,3.0,3.0,What is the appearance of the oven?,28.0,2.0,,,,,0.6,0.6666666666666666,0.5833333333333334,9.0,2.0,7.0,1.1629837777777778,-0.5995827777777778,1.2855118171843671,0.32509425480897675,-0.5110076911425385,-0.5251768416933513,-1.1380525102144605,0.21162994459110016,0.43635172726160326,0.5402516599634183,-0.15711224776651309,0.6417356818249813,1.7168440906272031
Encode-Decode_Experiment-13-1,2386442,encoding,2.44309,0.695652,0.395913,0.122689,23,16,False,0.127344,0.099366,32,3,35,35,1.0,0.124946,1.0,6171.0,1.0,1.0,Who is brushing their teeth in the scene?,1.0,7296.0,3.0,3.0,What is the person on the right wearing?,29.0,2.0,,,,,0.5294117647058824,0.6666666666666666,0.38461538461538464,9.0,4.0,5.0,2.905053333333333,-0.46196333333333284,1.488627680160608,0.28835178777162634,0.7912449840713053,-0.40463544546313107,0.15874268885010562,1.0023086608905318,-0.7382565009561091,0.5402516599634183,1.8169091270863789,1.654254104211708,1.1014633321841922
Encode-Decode_Experiment-13-1,2387122,encoding,0.600094,0.461538,0.360231,0.16882,13,6,False,0.156238,0.374332,9,7,19,16,0.8421,0.261716,1.0,7180.0,1.0,1.0,What is the polar bear doing next to the enclosure edge?,1.0,5457.0,3.0,3.0,Where is the polar bear located in the scene?,30.0,2.0,,,,,0.47058823529411764,0.4,0.5,8.0,2.0,6.0,0.8190727894736842,-0.2189787894736842,0.8482144860695828,0.18033698569591206,-0.4855867000043122,-0.19180435682268038,-2.8053606232974744,-0.7462651388809003,-0.40037889118665065,0.5402516599634183,-0.5468140480155639,-1.5381610398114771,-0.7076212553274387
Encode-Decode_Experiment-13-1,2370664,encoding,-1.017978,0.058824,0.166882,0.106151,17,1,False,0.104568,0.133365,2,24,26,26,1.0,0.13115,1.0,5084.0,4.0,4.0,How many donuts are in the scene?,1.0,3212.0,1.0,1.0,Where are the people located in the scene?,31.0,2.0,,,,,0.17647058823529413,0.14285714285714285,0.16666666666666666,3.0,1.0,2.0,0.856098157894737,-1.874076157894737,1.4260301774759678,0.25342910195739954,-1.6065905419636015,-1.641510453892237,-1.508565424232908,1.0023086608905318,-1.0045920875868697,0.5402516599634183,-0.5048588525746718,1.3422099155654739,0.5165611572328062
Encode-Decode_Experiment-13-1,2409918,encoding,-1.778182,0.142857,0.505714,0.204061,7,1,False,0.100713,0.241141,2,7,10,9,0.9,0.217613,1.0,5887.0,4.0,4.0,Where are the elephants in the scene?,0.0,6895.0,4.0,2.0,What is the elephant on the right (from your perspective) doing with its trunk?,36.0,1.0,,,,,0.5,0.16666666666666666,0.7,8.0,1.0,7.0,2.2261904736842104,-4.00437247368421,1.4272966719417661,0.13819269959814168,-2.1332615458947117,-3.507445121235117,-4.472668736380488,-0.10508449919270521,-1.0496712800026398,-1.6247274185664562,1.0476575255831513,1.3485233022191871,-1.413474314037984
Encode-Decode_Experiment-13-1,2385550,encoding,3.342677,0.464286,0.199464,0.079224,28,13,False,0.283041,0.31204,23,11,34,34,1.0,0.292423,1.0,4891.0,3.0,3.0,Which side of the frame is the boy on? (from your perspective),1.0,3565.0,4.0,4.0,Where are the tangerines in the scene?,37.0,2.0,,,,,0.7333333333333333,1.0,0.6666666666666666,11.0,3.0,8.0,1.7045187368421055,1.6381582631578946,1.2643407562442195,0.18372408348547578,1.414480837096777,1.4348690701686377,-0.026513768159118118,1.0023086608905318,1.082416656387125,0.5402516599634183,0.4565266170043935,0.5361994183876002,-0.6508924895495848
Encode-Decode_Experiment-13-1,2374670,encoding,0.226189,0.473684,0.443421,0.133796,19,9,False,0.237692,0.276194,25,7,35,32,0.9143,0.259207,1.0,5496.0,3.0,3.0,Where is the man standing relative to the vehicle?,1.0,4751.0,1.0,1.0,What vehicle sprays water in the scene?,41.0,2.0,,,,,0.47368421052631576,0.5714285714285714,0.36363636363636365,9.0,4.0,4.0,1.2780294736842106,-1.0518404736842106,0.952351037069395,0.18321268886084818,-0.744628906734166,-0.9213110823197262,0.15874268885010562,0.05327272269919747,0.5521193031153321,0.5402516599634183,-0.02674853061189013,-1.019047590048775,-0.6594575761467123
Encode-Decode_Experiment-13-1,2344622,encoding,1.476616,0.304348,0.16613,0.093604,23,7,False,0.166774,0.290839,15,13,33,28,0.8485,0.25128,1.0,3713.0,4.0,4.0,What is the cat resting its head on?,1.0,4659.0,2.0,2.0,Where is the cat located?,44.0,2.0,,,,,1.0,1.0,1.0,14.0,5.0,9.0,0.41730294736842105,1.0593130526315788,0.9118099608916732,0.23840831546663313,0.12166967026959408,0.927856342718012,-0.21177022516834185,-0.6753919766355723,-0.27717412561140936,0.5402516599634183,-1.002078450953905,-1.2211420296058102,0.26498569895718416
Encode-Decode_Experiment-14-1,2369373,encoding,1.436457,0.444444,0.269333,0.121905,18,8,False,0.201006,0.326698,14,8,25,22,0.88,0.222772,0.0,5927.0,2.0,3.0,What is the appearance of the oven?,1.0,4681.0,3.0,3.0,What tool is the chef using?,1.0,1.0,,,,,0.9333333333333333,1.0,0.9166666666666666,14.0,3.0,11.0,1.1629837777777778,0.27347322222222226,1.2855118171843671,0.32509425480897675,0.0938474267048807,0.23953623829335702,-1.6938218812421317,-0.3265631312093529,0.12312442556281732,-1.6247274185664562,-0.15711224776651309,0.6417356818249813,1.7168440906272031
Encode-Decode_Experiment-14-1,2397102,encoding,3.841226,0.37931,0.122724,0.066798,29,11,False,0.11555,0.149194,21,15,37,36,0.973,0.126972,1.0,4256.0,1.0,1.0,What are the couple doing with the cake?,1.0,4480.0,3.0,3.0,What is the man holding besides the cake knife?,2.0,2.0,,,,,0.6666666666666666,0.4,0.631578947368421,14.0,2.0,12.0,2.2877332105263157,1.553492789473684,1.077927015767692,0.2252856737283759,1.7598766812897184,1.3607102588786562,0.5292556028685531,0.7033125076680574,-0.8761719342509454,0.5402516599634183,1.1173945103125122,-0.3930600872600747,0.0452012947837898
Encode-Decode_Experiment-14-1,2350974,encoding,2.712301,0.6,0.28845,0.114866,20,12,False,0.287804,0.272957,27,3,33,30,0.9091,0.279347,1.0,12366.0,4.0,4.0,Between which two objects is the child standing?,1.0,3297.0,1.0,1.0,What is the child up against?,3.0,2.0,,,,,0.0,0.0,0.0,0.0,0.0,0.0,1.986942692307692,0.725358307692308,1.3508148030930802,0.33040060879114963,0.9777549572354798,0.6353441080175055,-0.21177022516834185,-0.004311721625130666,1.1381137234367524,0.5402516599634183,0.7765545533641308,0.9672665158060139,1.805717495202818
Encode-Decode_Experiment-14-1,2362704,encoding,1.405212,0.173913,0.082522,0.065037,23,4,False,0.323391,0.188194,9,19,30,28,0.9333,0.248635,1.0,2038.0,2.0,2.0,How many bears are in the scene?,1.0,3418.0,4.0,4.0,What are the bears doing with the pumpkins?,4.0,2.0,,,,,0.6666666666666666,0.4,0.5714285714285714,6.0,2.0,4.0,0.16786689473684208,1.2373451052631579,1.0466965314202636,0.19013005864288826,0.07220082195427738,1.0837952965815105,-0.7675395961960131,0.26367742311501274,1.55425723070005,0.5402516599634183,-1.2847262350124706,-0.5487418753709831,-0.5436020932098877
Encode-Decode_Experiment-14-1,2347025,encoding,0.138287,0.684211,0.667737,0.119127,19,13,False,0.144578,0.062884,21,4,29,25,0.8621,0.129955,1.0,6163.0,1.0,1.0,Where is the baby in relation to the mother?,0.0,4779.0,3.0,2.0,Who is holding the umbrella in the scene?,5.0,1.0,,,,,0.5333333333333333,0.75,0.4166666666666667,8.0,3.0,5.0,0.9090625789473684,-0.7707755789473685,1.2455567310475317,0.17505220608093222,-0.8055276057512094,-0.6751252691183388,-0.9527960532052369,-0.5247865068642527,-0.5367273694143755,-1.6247274185664562,-0.4448423630314282,0.4425623617858342,-0.7961333218787808
Encode-Decode_Experiment-14-1,2408717,encoding,1.009447,0.26087,0.178,0.082094,23,6,False,0.321244,0.267482,12,14,33,26,0.7879,0.264068,1.0,2100.0,2.0,2.0,How many surfers are in the scene?,1.0,4261.0,3.0,3.0,What are the surfers doing with the surfboards?,6.0,2.0,,,,,0.6,0.2,0.7777777777777778,9.0,1.0,7.0,0.5325437368421053,0.47690326315789466,0.7943932270394137,0.15370663939515447,-0.20198604087569436,0.4177213869730983,-0.21177022516834185,-1.3464722316460138,1.5291508685426807,0.5402516599634183,-0.871493664054608,-1.8064562654308993,-1.15363928366237
Encode-Decode_Experiment-14-1,2383555,encoding,-0.84846,0.045455,0.107,0.072538,22,1,False,0.40903,0.212643,2,23,32,25,0.7812,0.213888,1.0,4001.0,2.0,2.0,Who is holding the child in the boat?,1.0,3810.0,4.0,4.0,What is the woman at the back doing in the boat?,7.0,2.0,,,,,0.0,0.0,0.0,0.0,0.0,0.0,0.1691180625,-1.0175780625,0.9947364561235617,0.29166666666666663,-1.489148098561049,-0.8913005056964067,-0.3970266821775656,-1.4206675733715912,2.555693536612927,0.5402516599634183,-1.2833084776674069,-0.8077592297795172,1.1569825406930536
Encode-Decode_Experiment-14-1,2347400,encoding,2.033132,0.375,0.195417,0.088328,24,9,False,0.190789,0.219729,20,11,36,31,0.8611,0.205055,1.0,4992.0,3.0,3.0,What are the men doing with the wine?,1.0,2760.0,1.0,1.0,What are the men sitting on in the scene?,8.0,2.0,,,,,0.5,0.375,0.5833333333333334,10.0,3.0,7.0,1.0655103157894736,0.9676216842105265,1.0427120626048556,0.15811388300841894,0.5072251796114627,0.8475435234332709,0.34399914585932934,-0.535860438465085,0.003649948542862968,0.5402516599634183,-0.26756403588955463,-0.5686041747498256,-1.0798246180707318
Encode-Decode_Experiment-14-1,2409918,encoding,1.515797,0.45,0.28035,0.111921,20,9,False,0.095327,0.10184,20,11,33,31,0.9394,0.104578,0.0,9799.0,1.0,2.0,What is the elephant on the right (from your perspective) doing with its trunk?,1.0,3591.0,4.0,4.0,Where are the elephants in the scene?,9.0,1.0,,,,,0.625,0.5,0.6,10.0,3.0,6.0,2.2261904736842104,-0.7103934736842104,1.4272966719417661,0.13819269959814168,0.14881435328234446,-0.6222363528382018,-0.21177022516834185,0.3312284058800901,-1.1126535187448805,-1.6247274185664562,1.0476575255831513,1.3485233022191871,-1.413474314037984
Encode-Decode_Experiment-14-1,2356991,encoding,0.473833,0.2,0.15932,0.085853,25,5,False,0.155579,0.201171,8,24,33,32,0.9697,0.189783,1.0,9904.0,2.0,2.0,What is the current action of the gloved player on the base?,1.0,6912.0,1.0,1.0,How is the player on the left (from your perspective) reaching the base?,10.0,2.0,,,,,0.4,0.2857142857142857,0.4,6.0,2.0,4.0,0.8878508947368422,-0.4140178947368422,0.9251084568846146,0.2485042976789582,-0.5730605986254007,-0.3626398529462295,-0.21177022516834185,0.666768533385311,-0.4080850358823685,0.5402516599634183,-0.46887832525502326,-1.1548499538142492,0.4340781331895421
Encode-Decode_Experiment-14-1,2411268,encoding,2.938451,0.555556,0.221056,0.113835,18,10,False,0.157453,0.178419,16,11,33,27,0.8182,0.164798,1.0,7538.0,2.0,2.0,What is the child holding while picking fruit?,1.0,7174.0,4.0,4.0,Where is the fruit branch relative to the child?,11.0,2.0,,,,,0.6875,0.3333333333333333,0.9,11.0,2.0,9.0,1.8709475882352942,1.067503411764706,1.2676663714699867,0.29500669857798545,1.1344321748494632,0.935030309518413,-0.21177022516834185,-1.010932104140793,-0.3861710523318746,0.5402516599634183,0.6451150169305943,0.5527773785356611,1.2129230241864954
Encode-Decode_Experiment-14-1,2370664,encoding,0.09714,0.173913,0.166087,0.080565,23,4,False,0.23596,0.091393,12,23,37,35,0.9459,0.147265,1.0,3149.0,4.0,4.0,How many donuts are in the scene?,1.0,5105.0,1.0,1.0,Where are the people located in the scene?,12.0,2.0,,,,,0.4117647058823529,0.14285714285714285,0.4166666666666667,7.0,1.0,5.0,0.856098157894737,-0.758958157894737,1.4260301774759678,0.25342910195739954,-0.8340343378898899,-0.6647743449500636,0.5292556028685531,0.4032089612855,0.5318658241881951,0.5402516599634183,-0.5048588525746718,1.3422099155654739,0.5165611572328062
Encode-Decode_Experiment-14-1,2387122,encoding,0.509501,0.5,0.435455,0.126684,22,11,False,0.114624,0.070043,21,8,34,29,0.8529,0.109765,1.0,9959.0,1.0,1.0,What is the polar bear doing next to the enclosure edge?,1.0,3811.0,3.0,3.0,Where is the polar bear located in the scene?,13.0,2.0,,,,,0.6470588235294118,0.8,0.5833333333333334,11.0,4.0,7.0,0.8190727894736842,-0.30957178947368424,0.8482144860695828,0.18033698569591206,-0.5483497297425549,-0.2711551110185577,-0.026513768159118118,-0.6266666775919103,-0.8870002953863547,0.5402516599634183,-0.5468140480155639,-1.5381610398114771,-0.7076212553274387
Encode-Decode_Experiment-14-1,2374670,encoding,1.280649,0.478261,0.332348,0.113937,23,11,False,0.249489,0.191983,18,9,32,27,0.8438,0.235517,1.0,11581.0,3.0,3.0,Where is the man standing relative to the vehicle?,1.0,5812.0,1.0,1.0,What vehicle sprays water in the scene?,15.0,2.0,,,,,0.3684210526315789,0.2857142857142857,0.36363636363636365,7.0,2.0,4.0,1.2780294736842106,0.0026195263157893223,0.952351037069395,0.18321268886084818,-0.014096698530580484,0.0022944530901265123,-0.3970266821775656,-0.7274394551594848,0.6900698174937603,0.5402516599634183,-0.02674853061189013,-1.019047590048775,-0.6594575761467123
Encode-Decode_Experiment-14-1,2344622,encoding,0.544709,0.25,0.19535,0.100329,20,5,False,0.154286,0.213588,10,15,31,25,0.8065,0.213326,1.0,4246.0,4.0,4.0,What is the cat resting its head on?,1.0,5657.0,2.0,2.0,Where is the cat located?,16.0,2.0,,,,,0.14285714285714285,0.2,0.1111111111111111,2.0,1.0,1.0,0.41730294736842105,0.12740605263157895,0.9118099608916732,0.23840831546663313,-0.52395754987188,0.11159544739036602,-0.5822831391867893,-1.1404971038705323,-0.4232049829105372,0.5402516599634183,-1.002078450953905,-1.2211420296058102,0.26498569895718416
Encode-Decode_Experiment-14-1,2356125,encoding,0.717822,0.296296,0.231481,0.090294,27,8,False,0.280217,0.247689,17,13,36,30,0.8333,0.255928,0.0,6148.0,4.0,2.0,How many uniformed staff are moving the luggage?,1.0,4147.0,1.0,1.0,Where is the luggage being moved to?,17.0,1.0,,,,,0.0,0.0,0.0,0.0,0.0,0.0,0.7890656111111112,-0.07124361111111122,0.9652975669112814,0.30561199716381804,-0.4040244825589926,-0.062402550675046194,0.34399914585932934,-0.8437157369682242,1.0493936630324856,-1.6247274185664562,-0.5808166004956525,-0.9545100409927323,1.390545737452591
Encode-Decode_Experiment-14-1,2360001,encoding,2.320179,0.269231,0.1145,0.066689,26,7,False,0.371708,0.245339,14,17,32,31,0.9688,0.318284,1.0,4558.0,4.0,4.0,Where are the men standing?,1.0,5194.0,4.0,4.0,What are the workers doing to the clock?,18.0,2.0,,,,,0.5333333333333333,1.0,0.36363636363636365,8.0,4.0,4.0,1.1830057368421052,1.1371732631578948,1.3129750282741623,0.25744281524041096,0.7060919728214607,0.99605439805466,-0.3970266821775656,0.6568019949445617,2.1192614693389,0.5402516599634183,-0.13442441935382524,0.7786378752768329,0.5837847849157684
Encode-Decode_Experiment-14-1,2367132,encoding,2.619632,0.428571,0.179952,0.094906,21,9,False,0.109982,0.086747,22,8,33,30,0.9091,0.100056,1.0,7143.0,4.0,4.0,In which hand(s) are the men holding the controllers?,1.0,3069.0,2.0,2.0,How many men are playing in the scene?,19.0,2.0,,,,,0.6470588235294118,0.6,0.6153846153846154,11.0,3.0,8.0,3.1585223333333334,-0.5388903333333332,1.3235998062047658,0.16622507480397908,0.9135536701292661,-0.4720160981407804,-0.21177022516834185,-0.004311721625130666,-0.9412824253977699,0.5402516599634183,2.10412683447753,0.831601652851223,-0.943974421785478
Encode-Decode_Experiment-14-1,2371471,encoding,-0.129305,0.333333,0.347542,0.109883,24,8,False,0.352704,0.488962,19,13,32,32,1.0,0.408059,1.0,9321.0,2.0,2.0,What stunt is one motorcyclist performing?,1.0,5747.0,3.0,3.0,What is nearest to the motorcyclists?,21.0,2.0,,,,,0.5,0.4,0.4666666666666667,10.0,2.0,7.0,1.6490495,-1.7783545,1.3372851002744826,0.20472363006229238,-0.9909159321529828,-1.5576674886871205,-0.3970266821775656,1.0023086608905318,1.8970344984778638,0.5402516599634183,0.3936718022675764,0.8998218901006834,-0.2991818413161878
Encode-Decode_Experiment-14-1,2349475,encoding,-0.367195,0.068966,0.089241,0.055218,29,2,False,0.111236,0.069909,4,29,35,33,0.9429,0.077785,0.0,6205.0,2.0,1.0,What is the man doing to power the blender?,1.0,3986.0,3.0,3.0,Which part of the blender is the woman holding?,27.0,1.0,,,,,0.4,0.2,0.6,8.0,2.0,6.0,1.3088556842105263,-1.6760506842105263,1.1799822407727656,0.15267227492053612,-1.1557266475993258,-1.46805918627953,0.15874268885010562,0.36998716648300284,-0.9266185324562974,-1.6247274185664562,0.008182105935085504,0.1156780974603715,-1.1709633243766226
Encode-Decode_Experiment-14-1,2410309,encoding,0.556816,0.291667,0.238125,0.096157,24,7,False,0.138473,0.263642,14,16,32,30,0.9375,0.204776,1.0,3562.0,4.0,4.0,How many laptops or electronic devices are visible?,1.0,4495.0,2.0,2.0,What is the baby touching?,30.0,2.0,,,,,0.3333333333333333,0.14285714285714285,0.4444444444444444,5.0,1.0,4.0,0.31938894736842105,0.23742705263157893,0.9809366432334214,0.24307399556567427,-0.515569793631984,0.2079632608790971,-0.3970266821775656,0.31018793583850846,-0.6081173745241749,0.5402516599634183,-1.113029433525727,-0.8765503353683072,0.34312878486052656
Encode-Decode_Experiment-14-1,150472,encoding,1.234119,0.363636,0.240136,0.100071,22,8,False,0.095566,0.081963,18,13,31,31,1.0,0.089862,1.0,2356.0,4.0,4.0,How many women are in the scene?,1.0,3474.0,2.0,2.0,Where is the pizza slice located?,31.0,2.0,,,,,0.375,0.25,0.5,6.0,1.0,5.0,0.927113294117647,0.307005705882353,1.5219880912509123,0.1424009588740023,-0.04633278491385989,0.26890746861459935,-0.5822831391867893,1.0023086608905318,-1.109858725752048,0.5402516599634183,-0.4243882442714296,1.8205534287074945,-1.3429923351803472
Encode-Decode_Experiment-14-1,2386442,encoding,3.735814,0.692308,0.293846,0.10666,26,18,False,0.114149,0.106087,26,7,33,33,1.0,0.112439,1.0,5893.0,3.0,3.0,What is the person on the right wearing?,1.0,5111.0,1.0,1.0,Who is brushing their teeth in the scene?,32.0,2.0,,,,,0.0,0.0,0.0,0.0,0.0,0.0,2.905053333333333,0.8307606666666669,1.488627680160608,0.28835178777162634,1.6868470157441728,0.7276664362176973,-0.21177022516834185,1.0023086608905318,-0.8925548002884276,0.5402516599634183,1.8169091270863789,1.654254104211708,1.1014633321841922
Encode-Decode_Experiment-14-1,2394020,encoding,3.142319,0.636364,0.301136,0.106681,22,14,False,0.276657,0.296235,19,8,33,27,0.8182,0.293586,0.0,5297.0,4.0,1.0,Where is the scene taking place?,1.0,4901.0,2.0,2.0,What are the riders wearing on their heads?,33.0,1.0,,,,,1.0,0.6666666666666666,1.0,12.0,2.0,9.0,1.7388129473684213,1.4035060526315788,1.1351067280700708,0.244497601875636,1.2756723738347717,1.2293363040719973,-0.21177022516834185,-1.010932104140793,1.0077641105032658,-1.6247274185664562,0.4953870083112511,-0.10802320611946241,0.3669720376790687
Encode-Decode_Experiment-14-1,2385851,encoding,0.548615,0.136364,0.0995,0.067194,22,3,False,0.125317,0.240421,6,18,27,24,0.8889,0.226293,1.0,2432.0,2.0,2.0,What are the men doing with the suitcases?,1.0,9734.0,3.0,3.0,Where are the men?,35.0,2.0,,,,,0.8125,0.5714285714285714,1.0,13.0,4.0,9.0,-0.21419211764705884,0.7628071176470588,1.0009813005996218,0.19449276506277735,-0.5212514644772296,0.6681456634759576,-1.3233089672236842,-0.22800513996194452,-0.7619596197697968,0.5402516599634183,-1.7176553649061905,-0.7766291152512862,-0.4705333582551447
Encode-Decode_Experiment-14-1,2385550,encoding,-0.836359,0.095238,0.175429,0.095881,21,2,False,0.368029,0.282615,4,22,27,26,0.963,0.288785,1.0,2935.0,4.0,4.0,Where are the tangerines in the scene?,1.0,6075.0,3.0,3.0,Which side of the frame is the boy on? (from your perspective),36.0,2.0,,,,,0.4666666666666667,0.6666666666666666,0.4166666666666667,7.0,2.0,5.0,1.7045187368421055,-2.5408777368421056,1.2643407562442195,0.18372408348547578,-1.4807644991343554,-2.225564499883379,-1.3233089672236842,0.5925731916597337,2.07624036716053,0.5402516599634183,0.4565266170043935,0.5361994183876002,-0.6508924895495848
Encode-Decode_Experiment-14-1,2345035,encoding,-0.717731,0.1,0.1709,0.098784,20,2,False,0.109165,0.162186,5,19,33,24,0.7273,0.143989,0.0,7745.0,4.0,3.0,What are the people doing with the football?,1.0,5836.0,2.0,2.0,Who runs toward the football in the scene?,44.0,1.0,,,,,0.47619047619047616,0.2,0.5333333333333333,10.0,1.0,8.0,0.21320105263157893,-0.930932052631579,0.9432952232240902,0.2041649823125105,-1.3985787597087014,-0.8154069352094747,-0.21177022516834185,-2.0175524866564567,-0.9508361738293352,-1.6247274185664562,-1.2333559573965303,-1.0641901909944647,-0.30853834630029187
Encode-Decode_Experiment-14-1,2379478,encoding,2.698042,0.521739,0.234739,0.106373,23,12,False,0.344475,0.329327,20,8,33,28,0.8485,0.350471,0.0,3323.0,3.0,4.0,What is the position of the babies?,1.0,1994.0,2.0,2.0,How many babies are visible in the scene?,45.0,1.0,,,,,0.6923076923076923,0.8,0.5,9.0,4.0,5.0,2.2212703888888887,0.4767716111111113,1.1569489487697493,0.3220626180864117,0.9678762906603845,0.4176060724432374,-0.21177022516834185,-0.6753919766355723,1.8008070861849002,-1.6247274185664562,1.0420823448901182,0.0008587419480210054,1.666068760169417
Encode-Decode_Experiment-14-1,2412687,encoding,-0.388971,0.375,0.430187,0.141881,16,6,False,0.136834,0.129977,12,11,28,23,0.8214,0.129204,1.0,2710.0,4.0,4.0,What is the dog biting onto in the scene?,1.0,7457.0,3.0,3.0,What is the human's body position?,46.0,2.0,,,,,0.0,0.0,0.0,0.0,0.0,0.0,1.430236875,-1.819207875,1.2173561924649592,0.3066847820736392,-1.1708131083146127,-1.5934511156527469,-1.1380525102144605,-0.9754955230181297,-0.6272833398599589,0.5402516599634183,0.14572487187080357,0.3019846421646819,1.4085132623545216
Encode-Decode_Experiment-14-1,2348899,encoding,4.824092,0.730769,0.279808,0.093481,26,19,False,0.204805,0.124355,31,1,32,32,1.0,0.202291,1.0,4351.0,1.0,1.0,Where is the woman located relative to the man? (from your perspective),1.0,4085.0,4.0,4.0,What is the woman doing?,58.0,2.0,,,,,0.5652173913043478,0.3333333333333333,0.6470588235294118,13.0,2.0,11.0,3.229555894736842,1.5945361052631584,1.3986784428233952,0.14300788145883045,2.440808408759917,1.3966602557061631,-0.3970266821775656,1.0023086608905318,0.16754877108486937,0.5402516599634183,2.1846183212240127,1.2058634243847102,-1.332827299713674
Encode-Decode_Experiment-15-1,2347025,encoding,-0.104589,0.785714,0.798929,0.126345,14,11,False,0.067175,0.083575,42,2,49,44,0.898,0.079173,1.0,6200.0,2.0,2.0,Who is holding the umbrella in the scene?,1.0,2622.0,1.0,1.0,Where is the baby in relation to the mother?,1.0,2.0,,,,,0.6,0.5,0.5833333333333334,9.0,2.0,7.0,0.9090625789473684,-1.0136515789473683,1.2455567310475317,0.17505220608093222,-0.9737926329686042,-0.8878612837781678,2.752333086979238,-0.12723236239436997,-1.441854407172575,0.5402516599634183,-0.4448423630314282,0.4425623617858342,-0.7961333218787808
Encode-Decode_Experiment-15-1,2374670,encoding,0.823044,0.416667,0.323792,0.112843,24,10,False,0.230862,0.247911,25,9,35,34,0.9714,0.242316,1.0,7792.0,1.0,1.0,What vehicle sprays water in the scene?,0.0,4486.0,2.0,3.0,Where is the man standing relative to the vehicle?,2.0,1.0,,,,,0.42105263157894735,0.42857142857142855,0.36363636363636365,8.0,3.0,4.0,1.2780294736842106,-0.4549854736842106,0.952351037069395,0.18321268886084818,-0.3311264494315172,-0.3985235115848973,0.15874268885010562,0.6855942171067263,0.4722513694707901,-1.6247274185664562,-0.02674853061189013,-1.019047590048775,-0.6594575761467123
Encode-Decode_Experiment-15-1,2369373,encoding,1.50858,0.4375,0.250875,0.123709,16,7,False,0.185941,0.287374,21,10,37,31,0.8378,0.191001,1.0,4360.0,3.0,3.0,What tool is the chef using?,1.0,3235.0,3.0,3.0,What is the appearance of the oven?,3.0,2.0,,,,,0.6666666666666666,0.6666666666666666,0.6666666666666666,10.0,2.0,8.0,1.1629837777777778,0.3455962222222222,1.2855118171843671,0.32509425480897675,0.14381439980226435,0.30270904904991935,0.5292556028685531,-0.7938830447644791,-0.05304108254187202,0.5402516599634183,-0.15711224776651309,0.6417356818249813,1.7168440906272031
Encode-Decode_Experiment-15-1,2371471,encoding,0.760647,0.45,0.35825,0.120621,20,9,False,0.214091,0.578966,21,17,38,38,1.0,0.377325,1.0,5313.0,2.0,2.0,What stunt is one motorcyclist performing?,1.0,8140.0,3.0,3.0,What is nearest to the motorcyclists?,4.0,2.0,,,,,0.5,0.4,0.4666666666666667,10.0,2.0,7.0,1.6490495,-0.8884025000000001,1.3372851002744826,0.20472363006229238,-0.37435522832808904,-0.7781551378638847,0.7145120598777769,1.0023086608905318,0.27613641849676107,0.5402516599634183,0.3936718022675764,0.8998218901006834,-0.2991818413161878
