SubjectID,StimID,Phase,svg_z_enc,svg_obs,svg_null_mean,svg_null_std,n_transitions,n_relational,low_n_enc,mean_salience_relational_enc,mean_salience_nonrelational,n_relational_fixations,n_nonrelational_fixations,n_fixations_enc,n_aoi,aoi_prop_enc,mean_salience_enc,enc_q1_accuracy,enc_q1_rt_ms,enc_q1_response,enc_q1_correct_key,enc_q1_question,enc_q2_accuracy,enc_q2_rt_ms,enc_q2_response,enc_q2_correct_key,enc_q2_question,enc_trial_index,enc_total_correct,dec_free_response,dec_rt_ms,dec_trial_index,dec_cue_question,prop_total,prop_relations,prop_objects,n_total_recalled,n_relations_recalled,n_objects_recalled,svg_z_enc_image_mean,svg_z_enc_within,svg_z_enc_within_sd,prop_total_image_sd,svg_z_enc_z,svg_z_enc_within_z,n_fixations_enc_z,mean_salience_relational_enc_z,svg_z_enc_image_mean_z
Encode-Decode_Experiment-1-1,2387122,encoding,-0.330065,0.347826,0.387522,0.120266,23,8,False,0.316857,0.346243,16,13,33,29,0.8788,0.308556,1.0,7463.0,1.0,1.0,What is the polar bear doing next to the enclosure edge?,1.0,5668.0,3.0,3.0,Where is the polar bear located in the scene?,2.0,2.0,,,,,0.6470588235294118,0.4,0.6666666666666666,11.0,2.0,8.0,0.95652488,-1.28658988,0.8173197834419076,0.1703801241070615,-1.154410834111737,-1.1169341844330332,-0.18620026395985498,1.4900735291704723,-0.43865005878750785
Encode-Decode_Experiment-1-1,2374670,encoding,-0.476733,0.3,0.35995,0.125752,20,6,False,0.196744,0.192463,22,14,39,36,0.9231,0.212175,0.0,6044.0,4.0,1.0,What vehicle sprays water in the scene?,1.0,9310.0,3.0,3.0,Where is the man standing relative to the vehicle?,3.0,1.0,,,,,0.21052631578947367,0.14285714285714285,0.2727272727272727,4.0,1.0,3.0,1.4181374,-1.8948704,0.9602877439653179,0.18897085580323902,-1.2559800575877866,-1.6450040201080205,0.881778820114296,0.07743623106420436,0.09197647025976433
Encode-Decode_Experiment-1-1,2356991,encoding,2.017518,0.321429,0.158786,0.080615,28,9,False,0.148569,0.176891,13,20,37,33,0.8919,0.161358,1.0,10953.0,1.0,1.0,How is the player on the left (from your perspective) reaching the base?,1.0,6687.0,2.0,2.0,What is the current action of the gloved player on the base?,4.0,2.0,,,,,0.6875,0.5714285714285714,0.5,11.0,4.0,5.0,0.9458675599999999,1.07165044,1.1125880103838632,0.23763702187720387,0.471316538972886,0.930337653673058,0.525785792089579,-0.4891452533402269,-0.4509007159415775
Encode-Decode_Experiment-1-1,2412687,encoding,2.830765,0.666667,0.3048,0.127834,15,10,False,0.144164,0.08408,17,9,29,26,0.8966,0.127853,1.0,9147.0,3.0,3.0,What is the human's body position?,1.0,5930.0,4.0,4.0,What is the dog biting onto in the scene?,5.0,2.0,,,,,0.4666666666666667,0.5,0.4444444444444444,7.0,2.0,4.0,1.3880728181818183,1.4426921818181817,1.1189687657421192,0.2673871939639434,1.0344991437962088,1.252452114334215,-0.898186320009289,-0.540952029444047,0.057417042154479195
Encode-Decode_Experiment-1-1,2360001,encoding,-0.770094,0.041667,0.092708,0.06628,24,1,False,0.315042,0.283575,2,35,38,37,0.9737,0.279301,1.0,11249.0,4.0,4.0,What are the workers doing to the clock?,1.0,4944.0,4.0,4.0,Where are the men standing?,6.0,2.0,,,,,0.45,0.42857142857142855,0.5454545454545454,9.0,3.0,6.0,1.39867536,-2.1687693599999998,1.2351857496936403,0.20068632240389478,-1.4591358173183173,-1.882785395712075,0.7037823061019375,1.4687274908893295,0.06960473143998706
Encode-Decode_Experiment-1-1,2397102,encoding,3.190341,0.571429,0.227286,0.10787,21,12,False,0.137035,0.164877,24,11,35,35,1.0,0.145785,1.0,4439.0,1.0,1.0,What are the couple doing with the cake?,1.0,4350.0,3.0,3.0,What is the man holding besides the cake knife?,7.0,2.0,,,,,0.5714285714285714,0.6,0.47368421052631576,12.0,3.0,9.0,2.26796708,0.9223739200000001,1.2376148443473476,0.23108201096190967,1.283509528478785,0.8007454264116394,0.16979276406486202,-0.6247955043235319,1.068861095009011
Encode-Decode_Experiment-1-1,150472,encoding,1.668758,0.35,0.19075,0.09543,20,7,False,0.0896,0.086865,13,17,30,30,1.0,0.08805,1.0,3118.0,4.0,4.0,How many women are in the scene?,1.0,3643.0,2.0,2.0,Where is the pizza slice located?,8.0,2.0,,,,,0.5,0.5,0.5,8.0,2.0,5.0,1.1604478260869566,0.5083101739130433,1.5066087866121007,0.18270380898651734,0.22979635475064847,0.44128204205879373,-0.7201898059969305,-1.1826739207786268,-0.20423933466933228
Encode-Decode_Experiment-1-1,2379478,encoding,3.182431,0.866667,0.396667,0.147686,15,13,False,0.395444,,34,0,35,34,0.9714,0.406243,1.0,4689.0,4.0,4.0,What is the position of the babies?,1.0,2082.0,2.0,2.0,How many babies are visible in the scene?,9.0,2.0,,,,,0.5625,0.8,0.5,9.0,4.0,5.0,2.3086708260869564,0.8737601739130434,1.1150858190912176,0.2577925144752665,1.2780317653832522,0.7585421138549842,0.16979276406486202,2.4143275844873595,1.1156503101397945
Encode-Decode_Experiment-1-1,2369373,encoding,1.123483,0.6,0.46848,0.117064,25,15,False,0.238755,0.215394,30,10,40,40,1.0,0.232915,1.0,6485.0,3.0,3.0,What tool is the chef using?,1.0,4938.0,3.0,3.0,What is the appearance of the oven?,10.0,2.0,,,,,0.0,0.0,0.0,0.0,0.0,0.0,1.0903323333333332,0.03315066666666677,1.2117571324896848,0.30599341805477037,-0.14781265560541462,0.02877926634767622,1.0597753341266545,0.5715235116311905,-0.2848375397446503
Encode-Decode_Experiment-1-1,2347025,encoding,0.098753,0.473684,0.460684,0.131642,19,9,False,0.098077,0.100803,26,11,39,37,0.9487,0.101181,1.0,4866.0,1.0,1.0,Where is the baby in relation to the mother?,1.0,5607.0,2.0,2.0,Who is holding the umbrella in the scene?,11.0,2.0,,,,,0.4,0.5,0.3333333333333333,6.0,2.0,4.0,0.86743224,-0.76867924,1.3883500714462078,0.16966197330334568,-0.8574495932647032,-0.6673176381738708,0.881778820114296,-1.0829767491481885,-0.5410626153768703
Encode-Decode_Experiment-1-1,2349475,encoding,1.168152,0.291667,0.184917,0.091384,24,7,False,0.089086,0.054041,15,21,37,36,0.973,0.070533,1.0,4998.0,3.0,3.0,Which part of the blender is the woman holding?,0.0,14841.0,2.0,1.0,What is the man doing to power the blender?,12.0,1.0,,,,,0.6,0.5,0.5384615384615384,12.0,5.0,7.0,1.31280844,-0.1446564399999999,1.227799028890046,0.14645571126562063,-0.116878875616244,-0.12558137239069989,0.525785792089579,-1.1887190247326254,-0.029099839483652048
Encode-Decode_Experiment-1-1,2394020,encoding,1.776663,0.615385,0.351692,0.14842,13,8,False,0.183927,0.232903,24,3,33,27,0.8182,0.211957,1.0,11365.0,1.0,1.0,Where is the scene taking place?,1.0,3777.0,2.0,2.0,What are the riders wearing on their heads?,13.0,2.0,,,,,0.3,0.14285714285714285,0.3333333333333333,6.0,1.0,4.0,1.8755769599999998,-0.09891395999999975,1.0536561159866344,0.1998541134594599,0.30452176901404043,-0.08587070748733185,-0.18620026395985498,-0.0733032579988282,0.6178061552338879
Encode-Decode_Experiment-1-1,2362704,encoding,-0.792589,0.045455,0.099455,0.068131,22,1,False,0.209003,0.157402,2,24,28,26,0.9286,0.175742,1.0,4644.0,4.0,4.0,What are the bears doing with the pumpkins?,1.0,3040.0,2.0,2.0,How many bears are in the scene?,16.0,2.0,,,,,0.6666666666666666,0.2,0.7142857142857143,6.0,1.0,5.0,0.26959632,-1.06218532,0.9987298070590178,0.21728616172690426,-1.4747138553504286,-0.9221206481982747,-1.0761828340216475,0.22161313645733188,-1.2282788095333517
Encode-Decode_Experiment-1-1,2385550,encoding,2.217431,0.391304,0.199174,0.086646,23,9,False,0.279624,0.292266,19,13,34,32,0.9412,0.305476,1.0,6081.0,3.0,3.0,Which side of the frame is the boy on? (from your perspective),1.0,4534.0,4.0,4.0,Where are the tangerines in the scene?,17.0,2.0,,,,,0.5555555555555556,0.75,0.5,10.0,3.0,7.0,1.8192903599999999,0.39814064000000005,1.3236604318085095,0.2042747449101898,0.6097585179510376,0.34563997272234565,-0.008203749947496489,1.0521798413898764,0.553104350374106
Encode-Decode_Experiment-1-1,2410309,encoding,2.29324,0.36,0.16272,0.086027,25,9,False,0.292115,0.298995,17,17,36,34,0.9444,0.285861,1.0,3857.0,2.0,2.0,What is the baby touching?,1.0,3350.0,4.0,4.0,How many laptops or electronic devices are visible?,20.0,2.0,,,,,0.47058823529411764,0.2857142857142857,0.5,8.0,2.0,6.0,0.21797884,2.07526116,0.9212760864035131,0.2249985373471005,0.6622570947537203,1.8016076196947475,0.3477892780772205,1.1990852761941477,-1.2876134312428473
Encode-Decode_Experiment-1-1,2356125,encoding,1.7459,0.32,0.18104,0.079592,25,8,False,0.342058,0.22663,18,15,34,33,0.9706,0.284523,1.0,3847.0,2.0,2.0,How many uniformed staff are moving the luggage?,1.0,5075.0,1.0,1.0,Where is the luggage being moved to?,22.0,2.0,,,,,0.7,0.5714285714285714,0.6923076923076923,14.0,4.0,9.0,0.6897172916666667,1.0561827083333333,0.9511521402039089,0.2935832474587162,0.28321804889926605,0.9169095686844387,-0.008203749947496489,1.786460036455912,-0.7453470793119731
Encode-Decode_Experiment-1-1,2348899,encoding,4.591028,0.75,0.2456,0.109866,20,15,False,0.217957,0.119061,28,4,32,32,1.0,0.205595,1.0,5228.0,4.0,4.0,What is the woman doing?,1.0,9034.0,1.0,1.0,Where is the woman located relative to the man? (from your perspective),23.0,2.0,,,,,0.6086956521739131,0.6666666666666666,0.5882352941176471,14.0,4.0,10.0,3.1914342799999997,1.39959372,1.3974960096575266,0.13863135122977524,2.2535008757597033,1.2150368151394095,-0.3641967779722135,0.3269202586443021,2.130392517564454
Encode-Decode_Experiment-1-1,2350974,encoding,4.20909,0.736842,0.259579,0.113389,19,14,False,0.272914,0.241189,26,5,38,31,0.8158,0.278012,1.0,5186.0,4.0,4.0,Between which two objects is the child standing?,1.0,8762.0,1.0,1.0,What is the child up against?,24.0,2.0,,,,,0.5833333333333334,0.5,0.5,7.0,2.0,5.0,1.9028379333333334,2.3062520666666666,1.2721781249490671,0.38083073836292586,1.989004557026268,2.0021389964448737,0.7037823061019375,0.9732641847141374,0.6491428175460735
Encode-Decode_Experiment-1-1,2383555,encoding,-0.030115,0.2,0.2028,0.092978,25,5,False,0.211438,0.14111,10,23,34,33,0.9706,0.165578,0.0,7759.0,3.0,2.0,Who is holding the child in the boat?,1.0,4709.0,4.0,4.0,What is the woman at the back doing in the boat?,26.0,1.0,,,,,0.5238095238095238,0.4,0.6363636363636364,11.0,4.0,7.0,0.18494877272727273,-0.21506377272727273,0.9762266413569836,0.2505405411716091,-0.9466921184979618,-0.18670446839845156,-0.008203749947496489,0.25025093437170215,-1.3255817037479458
Encode-Decode_Experiment-1-1,2409918,encoding,2.408731,0.473684,0.224211,0.103571,19,9,False,0.169894,0.098334,25,10,35,35,1.0,0.149448,1.0,9968.0,4.0,4.0,Where are the elephants in the scene?,1.0,6438.0,2.0,2.0,What is the elephant on the right (from your perspective) doing with its trunk?,27.0,2.0,,,,,0.625,0.6666666666666666,0.6,10.0,4.0,6.0,2.2086372,0.20009379999999988,1.374986653984867,0.13678792892649555,0.7422358985041804,0.17370850555198392,0.16979276406486202,-0.2383440046650948,1.000661020424398
Encode-Decode_Experiment-1-1,2347400,encoding,0.212464,0.222222,0.199444,0.107208,18,4,False,0.198821,0.245429,9,18,30,27,0.9,0.241136,1.0,3779.0,3.0,3.0,What are the men doing with the wine?,1.0,2865.0,1.0,1.0,What are the men sitting on in the scene?,31.0,2.0,,,,,0.5,0.375,0.5,10.0,3.0,6.0,0.96349252,-0.75102852,1.0807221101664743,0.14817733206914757,-0.7787034593385223,-0.6519944237958315,-0.7201898059969305,0.10186362583551731,-0.43064071227140616
Encode-Decode_Experiment-1-1,2408717,encoding,1.46445,0.363636,0.219955,0.098113,22,8,False,0.193703,0.220917,21,11,37,32,0.8649,0.207272,1.0,2675.0,2.0,2.0,How many surfers are in the scene?,1.0,4633.0,3.0,3.0,What are the surfers doing with the surfboards?,32.0,2.0,,,,,0.5,0.2857142857142857,0.5555555555555556,8.0,2.0,5.0,0.50710532,0.9573446800000001,0.7595067787911068,0.17980747806102687,0.08831078932434704,0.8311047801628155,0.525785792089579,0.04167132615348542,-0.9552607027292109
Encode-Decode_Experiment-1-1,2386442,encoding,2.947547,0.769231,0.331385,0.148546,13,10,False,0.136657,0.144387,33,3,37,36,0.973,0.134292,1.0,6336.0,3.0,3.0,What is the person on the right wearing?,1.0,6401.0,1.0,1.0,Who is brushing their teeth in the scene?,33.0,2.0,,,,,0.3888888888888889,0.3333333333333333,0.38461538461538464,7.0,2.0,5.0,2.784380391304348,0.16316660869565203,1.4251312351743972,0.2774649513164166,1.1153719794248398,0.14165070458208637,0.525785792089579,-0.6292411255192739,1.6624814823659972
Encode-Decode_Experiment-1-1,2385851,encoding,0.29707,0.12,0.1012,0.063285,25,3,False,0.16401,0.12087,6,22,31,28,0.9032,0.15682,1.0,6572.0,3.0,3.0,Where are the men?,1.0,3877.0,2.0,2.0,What are the men doing with the suitcases?,35.0,2.0,,,,,0.3125,0.14285714285714285,0.4444444444444444,5.0,1.0,4.0,-0.2892036363636364,0.5862736363636364,0.8973895359022799,0.18298126367784998,-0.7201128620615793,0.5089648815568228,-0.542193291984572,-0.3075451557649531,-1.870622915098347
Encode-Decode_Experiment-1-1,2344622,encoding,0.018231,0.333333,0.330417,0.159986,12,4,False,0.169364,0.246224,9,10,24,19,0.7917,0.254556,1.0,3713.0,4.0,4.0,What is the cat resting its head on?,1.0,8759.0,2.0,2.0,Where is the cat located?,37.0,2.0,,,,,0.42857142857142855,0.4,0.4,6.0,2.0,4.0,0.5613143333333334,-0.5430833333333334,1.098197097356931,0.224707736831677,-0.9132119750571764,-0.47146985175714257,-1.7881688900710815,-0.24457728306124116,-0.892947096962747
Encode-Decode_Experiment-1-1,2411268,encoding,2.743085,0.6,0.2838,0.115272,20,12,False,0.159698,0.437671,23,8,32,31,0.9688,0.234453,0.0,9988.0,1.0,4.0,Where is the fruit branch relative to the child?,1.0,7151.0,2.0,2.0,What is the child holding while picking fruit?,38.0,1.0,,,,,0.4444444444444444,0.3333333333333333,0.42857142857142855,8.0,2.0,6.0,1.9221291363636366,0.8209558636363636,1.2389603981676889,0.26263048542262296,0.9737797672834041,0.712700824295461,-0.3641967779722135,-0.35825816792378856,0.6713181781821239
Encode-Decode_Experiment-1-1,2345035,encoding,-0.53349,0.25,0.305964,0.104902,28,7,False,0.234224,0.247613,15,21,41,36,0.878,0.23046,1.0,6065.0,3.0,3.0,What are the people doing with the football?,1.0,5287.0,2.0,2.0,Who runs toward the football in the scene?,42.0,2.0,,,,,0.38095238095238093,0.2,0.4666666666666667,8.0,1.0,7.0,0.46755884000000003,-1.0010488400000002,1.1972681039047701,0.2321196304141944,-1.2952849122038594,-0.8690459073741775,1.237771848139013,0.5182348617954566,-1.0007196331291865
Encode-Decode_Experiment-1-1,2370664,encoding,4.605735,0.555556,0.141389,0.089924,18,10,False,0.144682,0.152652,28,12,40,40,1.0,0.147073,1.0,3329.0,1.0,1.0,Where are the people located in the scene?,1.0,3201.0,4.0,4.0,How many donuts are in the scene?,45.0,2.0,,,,,0.7,0.5714285714285714,0.6428571428571429,14.0,4.0,9.0,1.0331027083333333,3.572632291666667,1.4230378648389013,0.23109694308114348,2.2636856370550253,3.1015284645110275,1.0597753341266545,-0.5348598818795113,-0.35062335784253673
Encode-Decode_Experiment-1-1,2367132,encoding,2.469503,0.380952,0.154952,0.091516,21,8,False,0.120313,0.081787,21,15,37,36,0.973,0.103802,1.0,4443.0,4.0,4.0,In which hand(s) are the men holding the controllers?,1.0,3240.0,2.0,2.0,How many men are playing in the scene?,46.0,2.0,,,,,0.5,0.6,0.4444444444444444,11.0,3.0,8.0,3.2539405,-0.7844375000000001,1.3076392498798874,0.1544481949671963,0.7843211853362535,-0.6809979410853034,0.525785792089579,-0.8214613181732651,2.2022438151905788
Encode-Decode_Experiment-10-1,2362704,encoding,1.880256,0.333333,0.182967,0.079971,30,10,False,0.248115,0.1542,17,17,35,34,0.9714,0.199018,1.0,4528.0,4.0,4.0,What are the bears doing with the pumpkins?,1.0,2438.0,2.0,2.0,How many bears are in the scene?,1.0,2.0,,,,,0.3333333333333333,0.2,0.2857142857142857,3.0,1.0,2.0,0.26959632,1.61065968,0.9987298070590178,0.21728616172690426,0.37626107525367286,1.3982706408976031,0.16979276406486202,0.6816055602876614,-1.2282788095333517
Encode-Decode_Experiment-10-1,150472,encoding,-0.859561,0.15,0.24775,0.113721,20,3,False,0.087219,0.075484,5,23,31,28,0.9032,0.092926,1.0,3338.0,2.0,2.0,Where is the pizza slice located?,1.0,2893.0,4.0,4.0,How many women are in the scene?,2.0,2.0,,,,,0.5625,0.75,0.6,9.0,3.0,6.0,1.1604478260869566,-2.020008826086957,1.5066087866121007,0.18270380898651734,-1.5210927112333616,-1.7536411142243433,-0.542193291984572,-1.210676629950748,-0.20423933466933228
Encode-Decode_Experiment-10-1,2370664,encoding,-0.010006,0.214286,0.2155,0.121359,14,3,False,0.069476,0.126217,6,16,26,22,0.8462,0.122232,1.0,3833.0,1.0,1.0,Where are the people located in the scene?,0.0,2566.0,3.0,4.0,How many donuts are in the scene?,4.0,1.0,,,,,0.25,0.14285714285714285,0.21428571428571427,5.0,1.0,3.0,1.0331027083333333,-1.0431087083333332,1.4230378648389013,0.23109694308114348,-0.9327664120392941,-0.9055595668273765,-1.4321758620463645,-1.4193503253900388,-0.35062335784253673
Encode-Decode_Experiment-10-1,2379478,encoding,0.921081,0.35,0.2475,0.111282,20,7,False,0.319026,0.389875,18,12,31,30,0.9677,0.355879,1.0,2007.0,2.0,2.0,How many babies are visible in the scene?,1.0,5045.0,4.0,4.0,What is the position of the babies?,5.0,2.0,,,,,0.0,0.0,0.0,0.0,0.0,0.0,2.3086708260869564,-1.3875898260869564,1.1150858190912176,0.2577925144752665,-0.28797829480414533,-1.2046158102285158,-0.542193291984572,1.515582926984135,1.1156503101397945
Encode-Decode_Experiment-10-1,2412687,encoding,0.594297,0.416667,0.326083,0.152421,12,5,False,0.123179,0.199847,12,4,28,16,0.5714,0.119551,1.0,3895.0,3.0,3.0,What is the human's body position?,1.0,3399.0,4.0,4.0,What is the dog biting onto in the scene?,6.0,2.0,,,,,0.0,0.0,0.0,0.0,0.0,0.0,1.3880728181818183,-0.7937758181818183,1.1189687657421192,0.2673871939639434,-0.5142798542744965,-0.6891048654164549,-1.0761828340216475,-0.7877545712235381,0.057417042154479195
Encode-Decode_Experiment-10-1,2347025,encoding,0.508345,0.52381,0.460143,0.125243,21,11,False,0.125089,0.154398,28,6,34,34,1.0,0.130261,1.0,3994.0,1.0,1.0,Where is the baby in relation to the mother?,0.0,4496.0,3.0,2.0,Who is holding the umbrella in the scene?,7.0,1.0,,,,,0.5333333333333333,0.5,0.5,8.0,2.0,6.0,0.86743224,-0.3590872399999999,1.3883500714462078,0.16966197330334568,-0.5738025715421583,-0.3117363347749236,-0.008203749947496489,-0.7652912471921428,-0.5410626153768703
Encode-Decode_Experiment-10-1,2356125,encoding,2.47984,0.5,0.243727,0.103342,22,11,False,0.235264,0.258587,25,10,37,35,0.9459,0.249079,1.0,2514.0,1.0,1.0,Where is the luggage being moved to?,1.0,3297.0,2.0,2.0,How many uniformed staff are moving the luggage?,8.0,2.0,,,,,0.45,0.42857142857142855,0.46153846153846156,9.0,3.0,6.0,0.6897172916666667,1.790122708333333,0.9511521402039089,0.2935832474587162,0.7914796729618563,1.5540688438085213,0.525785792089579,0.5304662005350647,-0.7453470793119731
Encode-Decode_Experiment-10-1,2350974,encoding,2.945957,0.8,0.3145,0.164802,10,8,False,0.256598,,19,0,25,19,0.76,0.238674,1.0,2261.0,1.0,1.0,What is the child up against?,1.0,4270.0,4.0,4.0,Between which two objects is the child standing?,9.0,2.0,,,,,0.0,0.0,0.0,0.0,0.0,0.0,1.9028379333333334,1.0431190666666665,1.2721781249490671,0.38083073836292586,1.1142708867166353,0.9055685592629409,-1.610172376058723,0.7813732973339049,0.6491428175460735
Encode-Decode_Experiment-10-1,2383555,encoding,0.816161,0.285714,0.199952,0.10508,21,6,False,0.302928,0.158923,10,16,32,26,0.8125,0.204814,1.0,3491.0,2.0,2.0,Who is holding the child in the boat?,1.0,4016.0,4.0,4.0,What is the woman at the back doing in the boat?,10.0,2.0,,,,,0.3333333333333333,0.2,0.45454545454545453,7.0,2.0,5.0,0.18494877272727273,0.6312122272727273,0.9762266413569836,0.2505405411716091,-0.36063656332288935,0.5479776619049903,-0.3641967779722135,1.3262559163781664,-1.3255817037479458
Encode-Decode_Experiment-10-1,2369373,encoding,2.615965,0.777778,0.427389,0.133942,18,14,False,0.261421,0.402052,24,1,26,25,0.9615,0.261874,1.0,4815.0,3.0,3.0,What is the appearance of the oven?,1.0,4239.0,3.0,3.0,What tool is the chef using?,11.0,2.0,,,,,0.4666666666666667,0.25,0.5,7.0,1.0,6.0,1.0903323333333332,1.5256326666666669,1.2117571324896848,0.30599341805477037,0.8857477515180329,1.324455683024436,-1.4321758620463645,0.8380961307388366,-0.2848375397446503
Encode-Decode_Experiment-10-1,2385550,encoding,0.843475,0.388889,0.287722,0.11994,18,7,False,0.276524,0.262302,14,14,32,28,0.875,0.277336,1.0,4548.0,3.0,3.0,Which side of the frame is the boy on? (from your perspective),1.0,3141.0,4.0,4.0,Where are the tangerines in the scene?,13.0,2.0,,,,,0.8333333333333334,0.75,0.8571428571428571,15.0,3.0,12.0,1.8192903599999999,-0.9758153599999999,1.3236604318085095,0.2042747449101898,-0.3417213141204401,-0.8471398308207014,-0.3641967779722135,1.0157210432237378,0.553104350374106
Encode-Decode_Experiment-10-1,2348899,encoding,4.18893,0.608696,0.217739,0.093331,23,14,False,0.201666,0.175792,22,6,28,28,1.0,0.196122,1.0,6102.0,1.0,1.0,Where is the woman located relative to the man? (from your perspective),1.0,3203.0,4.0,4.0,What is the woman doing?,14.0,2.0,,,,,0.5652173913043478,0.5,0.5882352941176471,13.0,3.0,10.0,3.1914342799999997,0.9974957200000003,1.3974960096575266,0.13863135122977524,1.9750435324996014,0.8659613182202565,-1.0761828340216475,0.1353233938299255,2.130392517564454
Encode-Decode_Experiment-10-1,2411268,encoding,0.473765,0.461538,0.388769,0.153598,13,6,False,0.243625,0.288897,16,9,26,25,0.9615,0.264995,1.0,6114.0,4.0,4.0,Where is the fruit branch relative to the child?,0.0,23799.0,1.0,2.0,What is the child holding while picking fruit?,15.0,1.0,,,,,0.5555555555555556,0.6666666666666666,0.35714285714285715,10.0,4.0,5.0,1.9221291363636366,-1.4483641363636366,1.2389603981676889,0.26263048542262296,-0.5977496066677604,-1.257376138705034,-1.4321758620463645,0.6287991074599313,0.6713181781821239
Encode-Decode_Experiment-10-1,2387122,encoding,-0.136416,0.421053,0.439421,0.13465,19,8,False,0.179375,0.28172,13,11,24,24,1.0,0.226283,1.0,4071.0,3.0,3.0,Where is the polar bear located in the scene?,1.0,3613.0,1.0,1.0,What is the polar bear doing next to the enclosure edge?,17.0,2.0,,,,,0.4117647058823529,0.4,0.4166666666666667,7.0,2.0,5.0,0.95652488,-1.09294088,0.8173197834419076,0.1703801241070615,-1.020306744897228,-0.948820637728257,-1.7881688900710815,-0.12683888678988106,-0.43865005878750785
Encode-Decode_Experiment-10-1,2349475,encoding,0.821209,0.153846,0.084154,0.084866,13,2,False,0.065656,0.09436,3,20,25,23,0.92,0.088054,1.0,2724.0,3.0,3.0,Which part of the blender is the woman holding?,1.0,3992.0,1.0,1.0,What is the man doing to power the blender?,18.0,2.0,,,,,0.75,0.6,0.6923076923076923,15.0,6.0,9.0,1.31280844,-0.49159944,1.227799028890046,0.14645571126562063,-0.3571407671021248,-0.4267748628522835,-1.610172376058723,-1.4642769734528291,-0.029099839483652048
Encode-Decode_Experiment-10-1,2410309,encoding,0.661148,0.263158,0.192158,0.107389,19,5,False,0.287865,0.226602,11,15,26,26,1.0,0.252521,1.0,5188.0,2.0,2.0,What is the baby touching?,1.0,3019.0,4.0,4.0,How many laptops or electronic devices are visible?,20.0,2.0,,,,,0.7647058823529411,0.7142857142857143,0.6666666666666666,13.0,5.0,8.0,0.21797884,0.44316915999999995,0.9212760864035131,0.2249985373471005,-0.46798479223916906,0.38473082369532735,-1.4321758620463645,1.1491014399986346,-1.2876134312428473
Encode-Decode_Experiment-10-1,2344622,encoding,-0.988013,0.25,0.386562,0.138219,16,4,False,0.153564,0.260008,8,17,31,25,0.8065,0.256139,1.0,3365.0,4.0,4.0,What is the cat resting its head on?,1.0,4642.0,2.0,2.0,Where is the cat located?,22.0,2.0,,,,,0.6428571428571429,0.6,0.6,9.0,3.0,6.0,0.5613143333333334,-1.5493273333333333,1.098197097356931,0.224707736831677,-1.6100471518335304,-1.3450258612919237,-0.542193291984572,-0.4303995446822065,-0.892947096962747
Encode-Decode_Experiment-10-1,2397102,encoding,1.887584,0.5,0.27925,0.116948,20,10,False,0.116305,0.084022,27,5,34,32,0.9412,0.105677,1.0,2309.0,1.0,1.0,What are the couple doing with the cake?,1.0,3756.0,3.0,3.0,What is the man holding besides the cake knife?,23.0,2.0,,,,,0.0,0.0,0.0,0.0,0.0,0.0,2.26796708,-0.3803830800000001,1.2376148443473476,0.23108201096190967,0.3813357968673343,-0.33022400676113306,-0.008203749947496489,-0.8685990159312922,1.068861095009011
Encode-Decode_Experiment-10-1,2409918,encoding,-0.195526,0.352941,0.379176,0.134178,17,6,False,0.170519,0.124303,16,10,35,26,0.7429,0.131688,1.0,5345.0,4.0,4.0,Where are the elephants in the scene?,1.0,3997.0,2.0,2.0,What is the elephant on the right (from your perspective) doing with its trunk?,24.0,2.0,,,,,0.6875,0.6666666666666666,0.6,11.0,4.0,6.0,2.2086372,-2.4041632,1.374986653984867,0.13678792892649555,-1.0612410782192159,-2.0871391146306166,0.16979276406486202,-0.2309934405186957,1.000661020424398
Encode-Decode_Experiment-10-1,2374670,encoding,0.029488,0.714286,0.709929,0.14776,14,10,False,0.17199,0.258162,17,7,28,24,0.8571,0.215653,1.0,4770.0,1.0,1.0,What vehicle sprays water in the scene?,1.0,5684.0,3.0,3.0,Where is the man standing relative to the vehicle?,25.0,2.0,,,,,0.3684210526315789,0.42857142857142855,0.36363636363636365,7.0,3.0,4.0,1.4181374,-1.3886494,0.9602877439653179,0.18897085580323902,-0.9054163771853171,-1.205535663821964,-1.0761828340216475,-0.2136931527437311,0.09197647025976433
Encode-Decode_Experiment-10-1,2360001,encoding,2.026076,0.285714,0.104571,0.089406,14,4,False,0.261531,0.219258,9,14,23,23,1.0,0.235799,1.0,4442.0,4.0,4.0,Where are the men standing?,1.0,3459.0,4.0,4.0,What are the workers doing to the clock?,27.0,2.0,,,,,0.0,0.0,0.0,0.0,0.0,0.0,1.39867536,0.6274006400000003,1.2351857496936403,0.20068632240389478,0.4772430492853472,0.5446686881690407,-1.96616540408344,0.8393898300286028,0.06960473143998706
Encode-Decode_Experiment-10-1,2347400,encoding,0.444285,0.4,0.3264,0.165659,10,4,False,0.138936,0.267598,21,11,37,32,0.8649,0.188872,1.0,2603.0,1.0,1.0,What are the men sitting on in the scene?,1.0,4788.0,3.0,3.0,What are the men doing with the wine?,29.0,2.0,,,,,0.45,0.375,0.5,9.0,3.0,6.0,0.96349252,-0.5192075199999999,1.0807221101664743,0.14817733206914757,-0.6181648349934616,-0.45074241366075235,0.525785792089579,-0.6024380284158447,-0.43064071227140616
Encode-Decode_Experiment-10-1,2408717,encoding,-0.059029,0.222222,0.228778,0.111057,18,4,False,0.157241,0.270898,12,12,28,24,0.8571,0.215179,1.0,3635.0,2.0,2.0,How many surfers are in the scene?,1.0,2977.0,3.0,3.0,What are the surfers doing with the surfboards?,30.0,2.0,,,,,0.8125,0.42857142857142855,1.0,13.0,3.0,9.0,0.50710532,-0.56613432,0.7595067787911068,0.17980747806102687,-0.9667153855199878,-0.4914812286482075,-1.0761828340216475,-0.3871547056961123,-0.9552607027292109
Encode-Decode_Experiment-10-1,2394020,encoding,1.732468,0.8,0.4745,0.187882,10,8,False,0.252803,,15,0,19,15,0.7895,0.247894,1.0,3488.0,1.0,1.0,Where is the scene taking place?,1.0,3246.0,2.0,2.0,What are the riders wearing on their heads?,33.0,2.0,,,,,0.0,0.0,0.0,0.0,0.0,0.0,1.8755769599999998,-0.14310895999999995,1.0536561159866344,0.1998541134594599,0.27391623930391934,-0.12423795026481906,-2.6781514601328738,0.7367406718369706,0.6178061552338879
Encode-Decode_Experiment-10-1,2356991,encoding,2.220155,0.5,0.238,0.11801,16,8,False,0.128548,0.042288,20,10,31,30,0.9677,0.102377,1.0,5505.0,2.0,2.0,What is the current action of the gloved player on the base?,1.0,6324.0,1.0,1.0,How is the player on the left (from your perspective) reaching the base?,36.0,2.0,,,,,0.3125,0.2857142857142857,0.3,5.0,2.0,3.0,0.9458675599999999,1.2742874400000002,1.1125880103838632,0.23763702187720387,0.6116449182888671,1.1062540011038,-0.542193291984572,-0.7246102849803125,-0.4509007159415775
Encode-Decode_Experiment-10-1,2386442,encoding,-0.711952,0.545455,0.667818,0.171871,11,6,False,0.129535,0.134756,13,7,20,20,1.0,0.131362,1.0,4429.0,3.0,3.0,What is the person on the right wearing?,1.0,4695.0,1.0,1.0,Who is brushing their teeth in the scene?,37.0,2.0,,,,,0.2222222222222222,0.16666666666666666,0.23076923076923078,4.0,1.0,3.0,2.784380391304348,-3.4963323913043483,1.4251312351743972,0.2774649513164166,-1.4188718347771732,-3.0352898221057973,-2.5001549461205155,-0.7130022740803191,1.6624814823659972
Encode-Decode_Experiment-10-1,2345035,encoding,-0.090433,0.277778,0.289611,0.130852,18,5,False,0.17469,0.20841,12,14,40,26,0.65,0.167931,0.0,3175.0,2.0,3.0,What are the people doing with the football?,1.0,6623.0,2.0,2.0,Who runs toward the football in the scene?,41.0,1.0,,,,,0.5238095238095238,0.4,0.6,11.0,2.0,9.0,0.46755884000000003,-0.55799184,1.1972681039047701,0.2321196304141944,-0.9884630052737301,-0.4844124537422038,1.0597753341266545,-0.18193871563128755,-1.0007196331291865
Encode-Decode_Experiment-10-1,2371471,encoding,1.413843,0.4,0.1956,0.144571,10,4,False,0.148076,0.373248,31,14,45,45,1.0,0.218129,1.0,7062.0,2.0,2.0,What stunt is one motorcyclist performing?,1.0,4367.0,3.0,3.0,What is nearest to the motorcyclists?,42.0,2.0,,,,,0.4,0.6,0.3333333333333333,8.0,3.0,5.0,1.608111409090909,-0.19426840909090903,1.2444983048226859,0.21932342966135415,0.053264878202272284,-0.16865127764650018,1.949757904188447,-0.4949433783389063,0.3103528025418783
Encode-Decode_Experiment-10-1,2385851,encoding,-0.674388,0.133333,0.215067,0.121196,15,2,False,0.367904,0.224178,6,13,30,19,0.6333,0.33537,1.0,5412.0,3.0,3.0,Where are the men?,1.0,2633.0,2.0,2.0,What are the men doing with the suitcases?,46.0,2.0,,,,,0.4375,0.2857142857142857,0.5555555555555556,7.0,2.0,5.0,-0.2892036363636364,-0.3851843636363636,0.8973895359022799,0.18298126367784998,-1.3928583464180604,-0.33439217091816287,-0.7201898059969305,2.0904323259404363,-1.870622915098347
Encode-Decode_Experiment-10-1,2367132,encoding,2.837132,0.5,0.165167,0.118018,12,6,False,0.105676,0.034278,11,11,22,22,1.0,0.069977,1.0,2315.0,2.0,2.0,How many men are playing in the scene?,0.0,7330.0,1.0,4.0,In which hand(s) are the men holding the controllers?,55.0,1.0,,,,,0.5,0.6,0.4444444444444444,11.0,3.0,8.0,3.2539405,-0.41680850000000014,1.3076392498798874,0.1544481949671963,1.0389083622069868,-0.361846202312936,-2.1441619180957985,-0.9936056500306114,2.2022438151905788
Encode-Decode_Experiment-11-1,2370664,encoding,0.697606,0.153846,0.108385,0.065168,26,4,False,0.15941,0.163214,9,25,34,34,1.0,0.162207,1.0,2788.0,4.0,4.0,How many donuts are in the scene?,1.0,3789.0,1.0,1.0,Where are the people located in the scene?,1.0,2.0,,,,,0.35,0.2857142857142857,0.2857142857142857,7.0,2.0,4.0,1.0331027083333333,-0.33549670833333334,1.4230378648389013,0.23109694308114348,-0.4427372211978388,-0.2912565597844271,-0.008203749947496489,-0.3616453078824493,-0.35062335784253673
Encode-Decode_Experiment-11-1,2356125,encoding,1.642844,0.4,0.24756,0.09279,25,10,False,0.290167,0.261904,18,12,37,30,0.8108,0.29884,0.0,2916.0,4.0,2.0,How many uniformed staff are moving the luggage?,1.0,3095.0,1.0,1.0,Where is the luggage being moved to?,2.0,1.0,,,,,0.45,0.42857142857142855,0.46153846153846156,9.0,3.0,6.0,0.6897172916666667,0.9531267083333332,0.9511521402039089,0.2935832474587162,0.21185062114032888,0.827443009759748,0.525785792089579,1.1761750378626514,-0.7453470793119731
Encode-Decode_Experiment-11-1,2344622,encoding,-0.812151,0.16,0.23684,0.094613,25,4,False,0.21429,0.20509,8,22,36,30,0.8333,0.229643,1.0,3551.0,4.0,4.0,What is the cat resting its head on?,1.0,4489.0,2.0,2.0,Where is the cat located?,3.0,2.0,,,,,0.5,0.4,0.5,7.0,2.0,5.0,0.5613143333333334,-1.3734653333333333,1.098197097356931,0.224707736831677,-1.4882607582170286,-1.1923538384537198,0.3477892780772205,0.2837930286845501,-0.892947096962747
Encode-Decode_Experiment-11-1,2360001,encoding,1.051911,0.214286,0.137321,0.073166,28,6,False,0.150861,0.28008,13,22,35,35,1.0,0.232084,1.0,3527.0,4.0,4.0,What are the workers doing to the clock?,0.0,4447.0,2.0,4.0,Where are the men standing?,5.0,1.0,,,,,0.45,0.42857142857142855,0.5454545454545454,9.0,3.0,6.0,1.39867536,-0.3467643599999999,1.2351857496936403,0.20068632240389478,-0.19737706271963062,-0.30103840675868104,0.16979276406486202,-0.46218926450255277,0.06960473143998706
Encode-Decode_Experiment-11-1,150472,encoding,-0.525739,0.217391,0.272826,0.105442,23,5,False,0.091957,0.093667,11,16,29,27,0.931,0.10335,1.0,4609.0,2.0,2.0,Where is the pizza slice located?,1.0,2436.0,4.0,4.0,How many women are in the scene?,6.0,2.0,,,,,0.4375,0.25,0.6,7.0,1.0,6.0,1.1604478260869566,-1.6861868260869566,1.5066087866121007,0.18270380898651734,-1.2899172583791474,-1.4638384279823184,-0.898186320009289,-1.154953473269727,-0.20423933466933228
Encode-Decode_Experiment-11-1,2362704,encoding,0.174253,0.153846,0.141192,0.072618,26,4,False,0.206413,0.164435,7,23,30,30,1.0,0.17423,1.0,3273.0,4.0,4.0,What are the bears doing with the pumpkins?,1.0,2147.0,2.0,2.0,How many bears are in the scene?,7.0,2.0,,,,,0.5555555555555556,0.2,0.5714285714285714,5.0,1.0,4.0,0.26959632,-0.09534332000000001,0.9987298070590178,0.21728616172690426,-0.8051650024034263,-0.08277090860168877,-0.7201898059969305,0.19115239863465486,-1.2282788095333517
Encode-Decode_Experiment-11-1,2367132,encoding,3.730474,0.35,0.0866,0.070608,20,7,False,0.089679,0.110717,19,14,34,33,0.9706,0.098292,1.0,5518.0,4.0,4.0,In which hand(s) are the men holding the controllers?,1.0,2338.0,2.0,2.0,How many men are playing in the scene?,8.0,2.0,,,,,0.5454545454545454,0.6,0.5,12.0,3.0,9.0,3.2539405,0.47653349999999994,1.3076392498798874,0.1544481949671963,1.6575576465671833,0.41369558742178103,-0.008203749947496489,-1.181744809470522,2.2022438151905788
Encode-Decode_Experiment-11-1,2386442,encoding,3.655787,0.703704,0.312148,0.107106,27,19,False,0.113722,0.105171,33,4,37,37,1.0,0.112798,0.0,3200.0,4.0,3.0,What is the person on the right wearing?,1.0,4148.0,1.0,1.0,Who is brushing their teeth in the scene?,9.0,1.0,,,,,0.4444444444444444,0.16666666666666666,0.5384615384615384,8.0,1.0,7.0,2.784380391304348,0.871406608695652,1.4251312351743972,0.2774649513164166,1.6058360672604788,0.7564989006388216,0.525785792089579,-0.8989774274355299,1.6624814823659972
Encode-Decode_Experiment-11-1,2347400,encoding,1.436542,0.318182,0.179818,0.096317,22,7,False,0.235781,0.188421,14,14,38,28,0.7368,0.237335,1.0,3737.0,3.0,3.0,What are the men doing with the wine?,1.0,2667.0,1.0,1.0,What are the men sitting on in the scene?,11.0,2.0,,,,,0.4,0.125,0.5833333333333334,8.0,1.0,7.0,0.96349252,0.47304948,1.0807221101664743,0.14817733206914757,0.06898418850637991,0.41067098642208383,0.7037823061019375,0.5365465871969657,-0.43064071227140616
Encode-Decode_Experiment-11-1,2356991,encoding,0.951975,0.241379,0.166828,0.078313,29,7,False,0.12271,0.17492,14,20,37,34,0.9189,0.14964,1.0,6140.0,1.0,1.0,How is the player on the left (from your perspective) reaching the base?,1.0,6431.0,2.0,2.0,What is the current action of the gloved player on the base?,12.0,2.0,,,,,0.375,0.2857142857142857,0.4,6.0,2.0,4.0,0.9458675599999999,0.006107440000000075,1.1125880103838632,0.23763702187720387,-0.26658385573039317,0.005302084698018737,0.525785792089579,-0.7932704345589958,-0.4509007159415775
Encode-Decode_Experiment-11-1,2371471,encoding,1.885618,0.44,0.25408,0.098599,25,11,False,0.261174,0.606556,21,10,31,31,1.0,0.372587,0.0,4957.0,1.0,3.0,What is nearest to the motorcyclists?,1.0,6247.0,2.0,2.0,What stunt is one motorcyclist performing?,14.0,1.0,,,,,0.35,0.2,0.3333333333333333,7.0,1.0,5.0,1.608111409090909,0.277506590909091,1.2444983048226859,0.21932342966135415,0.3799743199715295,0.24091328760633263,-0.542193291984572,0.8351911877881798,0.3103528025418783
Encode-Decode_Experiment-11-1,2408717,encoding,-0.470886,0.16,0.19976,0.084437,25,4,False,0.350207,0.289281,8,19,34,27,0.7941,0.298228,1.0,3767.0,3.0,3.0,What are the surfers doing with the surfboards?,1.0,2533.0,2.0,2.0,How many surfers are in the scene?,16.0,2.0,,,,,0.625,0.14285714285714285,0.8888888888888888,10.0,1.0,8.0,0.50710532,-0.97799132,0.7595067787911068,0.17980747806102687,-1.2519309449683709,-0.8490288586653469,-0.008203749947496489,1.8822996320223202,-0.9552607027292109
Encode-Decode_Experiment-11-1,2410309,encoding,-0.011677,0.136364,0.137364,0.085637,22,3,False,0.308537,0.292408,7,24,34,31,0.9118,0.315882,1.0,3041.0,4.0,4.0,How many laptops or electronic devices are visible?,1.0,3278.0,2.0,2.0,What is the baby touching?,17.0,2.0,,,,,0.5294117647058824,0.42857142857142855,0.5,9.0,3.0,6.0,0.21797884,-0.22965584,0.9212760864035131,0.2249985373471005,-0.9339235981496145,-0.19937235815245427,-0.008203749947496489,1.3922228192536095,-1.2876134312428473
Encode-Decode_Experiment-11-1,2349475,encoding,-0.11116,0.173913,0.184609,0.096219,23,4,False,0.062321,0.052886,7,20,35,27,0.7714,0.078727,1.0,4349.0,3.0,3.0,Which part of the blender is the woman holding?,1.0,3378.0,1.0,1.0,What is the man doing to power the blender?,19.0,2.0,,,,,0.6,0.5,0.5384615384615384,12.0,5.0,7.0,1.31280844,-1.42396844,1.227799028890046,0.14645571126562063,-1.0028166836152093,-1.2361973717605943,0.16979276406486202,-1.503499583738014,-0.029099839483652048
Encode-Decode_Experiment-11-1,2385851,encoding,-1.019643,0.086957,0.172261,0.083661,23,2,False,0.158952,0.177844,5,21,32,26,0.8125,0.207879,1.0,3774.0,3.0,3.0,Where are the men?,1.0,2739.0,2.0,2.0,What are the men doing with the suitcases?,20.0,2.0,,,,,0.4375,0.2857142857142857,0.5555555555555556,7.0,2.0,5.0,-0.2892036363636364,-0.7304393636363637,0.8973895359022799,0.18298126367784998,-1.631951279104288,-0.6341202488713542,-0.3641967779722135,-0.3670318012889303,-1.870622915098347
Encode-Decode_Experiment-11-1,2387122,encoding,1.141207,0.47619,0.339095,0.120132,21,10,False,0.139046,0.109506,20,5,28,25,0.8929,0.136233,1.0,5174.0,3.0,3.0,Where is the polar bear located in the scene?,1.0,4770.0,1.0,1.0,What is the polar bear doing next to the enclosure edge?,21.0,2.0,,,,,0.6470588235294118,0.6,0.6666666666666666,11.0,3.0,8.0,0.95652488,0.18468212000000006,0.8173197834419076,0.1703801241070615,-0.13553858820905335,0.16032908099787296,-1.0761828340216475,-0.6011443291260785,-0.43865005878750785
Encode-Decode_Experiment-11-1,2345035,encoding,0.405641,0.16129,0.131161,0.074275,31,5,False,0.213296,0.22694,7,27,37,34,0.9189,0.213018,1.0,3135.0,2.0,2.0,Who runs toward the football in the scene?,1.0,4557.0,3.0,3.0,What are the people doing with the football?,22.0,2.0,,,,,0.42857142857142855,0.2,0.4,9.0,1.0,6.0,0.46755884000000003,-0.06191784000000006,1.1972681039047701,0.2321196304141944,-0.6449262353807886,-0.053753067078574496,0.525785792089579,0.27210269146611726,-1.0007196331291865
Encode-Decode_Experiment-11-1,2397102,encoding,0.749626,0.3,0.22015,0.10652,20,6,False,0.173613,0.169396,16,12,30,28,0.9333,0.165927,1.0,3272.0,1.0,1.0,What are the couple doing with the cake?,1.0,4218.0,3.0,3.0,What is the man holding besides the cake knife?,23.0,2.0,,,,,0.47619047619047616,0.4,0.3684210526315789,10.0,2.0,7.0,2.26796708,-1.51834108,1.2376148443473476,0.23108201096190967,-0.4067127918388504,-1.3181255987191278,-0.7201898059969305,-0.1946052077683625,1.068861095009011
Encode-Decode_Experiment-11-1,2394020,encoding,1.411591,0.75,0.541625,0.147617,16,12,False,0.284873,,20,0,25,20,0.8,0.280133,1.0,4892.0,2.0,2.0,What are the riders wearing on their heads?,1.0,2807.0,1.0,1.0,Where is the scene taking place?,27.0,2.0,,,,,0.3,0.14285714285714285,0.3333333333333333,6.0,1.0,4.0,1.8755769599999998,-0.4639859599999998,1.0536561159866344,0.1998541134594599,0.05170534312121809,-0.40280262411280415,-1.610172376058723,1.1139128193169936,0.6178061552338879
Encode-Decode_Experiment-11-1,2374670,encoding,1.722857,0.44,0.25392,0.108007,25,11,False,0.236601,0.256587,19,14,35,33,0.9429,0.242823,1.0,4330.0,1.0,1.0,What vehicle sprays water in the scene?,0.0,6666.0,4.0,3.0,Where is the man standing relative to the vehicle?,29.0,1.0,,,,,0.3684210526315789,0.42857142857142855,0.36363636363636365,7.0,3.0,4.0,1.4181374,0.3047196000000001,0.9602877439653179,0.18897085580323902,0.26726051476394946,0.2645378633840647,0.16979276406486202,0.5461905273570413,0.09197647025976433
Encode-Decode_Experiment-11-1,2385550,encoding,1.638093,0.285714,0.159679,0.076941,28,8,False,0.232533,0.234815,16,16,34,32,0.9412,0.232809,1.0,3325.0,4.0,4.0,Where are the tangerines in the scene?,1.0,5641.0,3.0,3.0,Which side of the frame is the boy on? (from your perspective),30.0,2.0,,,,,0.3333333333333333,0.0,0.42857142857142855,6.0,0.0,6.0,1.8192903599999999,-0.18119735999999986,1.3236604318085095,0.2042747449101898,0.20856050072732327,-0.15730383757800004,-0.008203749947496489,0.49834717544095963,0.553104350374106
Encode-Decode_Experiment-11-1,2412687,encoding,0.152419,0.357143,0.334429,0.149025,14,5,False,0.098331,0.218764,12,12,29,24,0.8276,0.141215,1.0,3151.0,4.0,4.0,What is the dog biting onto in the scene?,1.0,5574.0,3.0,3.0,What is the human's body position?,34.0,2.0,,,,,0.4666666666666667,0.5,0.5555555555555556,7.0,2.0,5.0,1.3880728181818183,-1.2356538181818182,1.1189687657421192,0.2673871939639434,-0.8202852905738252,-1.0727147874445218,-0.898186320009289,-1.0799894798790919,0.057417042154479195
Encode-Decode_Experiment-11-1,2409918,encoding,0.354383,0.36,0.32392,0.101811,25,9,False,0.147662,0.187722,21,12,35,33,0.9429,0.172968,1.0,3977.0,4.0,4.0,Where are the elephants in the scene?,1.0,4189.0,2.0,2.0,What is the elephant on the right (from your perspective) doing with its trunk?,35.0,2.0,,,,,0.6875,0.6666666666666666,0.7,11.0,4.0,7.0,2.2086372,-1.8542542000000002,1.374986653984867,0.13678792892649555,-0.6804229712532036,-1.6097436602008146,0.16979276406486202,-0.4998123920294813,1.000661020424398
Encode-Decode_Experiment-11-1,2347025,encoding,0.686526,0.75,0.6718,0.113907,20,15,False,0.137319,0.055183,30,1,32,31,0.9688,0.13769,1.0,4062.0,1.0,1.0,Where is the baby in relation to the mother?,0.0,4582.0,3.0,2.0,Who is holding the umbrella in the scene?,43.0,1.0,,,,,0.6,0.5,0.5833333333333334,9.0,2.0,7.0,0.86743224,-0.18090624,1.3883500714462078,0.16966197330334568,-0.45041024459840767,-0.1570511060084248,-0.3641967779722135,-0.6214554079754082,-0.5410626153768703
Encode-Decode_Experiment-11-1,2348899,encoding,3.835123,0.52,0.19808,0.08394,25,13,False,0.194244,0.172049,21,11,32,32,1.0,0.186614,1.0,3377.0,4.0,4.0,What is the woman doing?,1.0,9406.0,1.0,1.0,Where is the woman located relative to the man? (from your perspective),46.0,2.0,,,,,0.6086956521739131,0.5,0.6470588235294118,14.0,3.0,11.0,3.1914342799999997,0.6436887200000001,1.3974960096575266,0.13863135122977524,1.7300282445677366,0.5588089465634093,-0.3641967779722135,0.04803397447860852,2.130392517564454
Encode-Decode_Experiment-11-1,2379478,encoding,-0.019075,0.285714,0.288429,0.142295,14,4,False,0.4593,0.376932,10,7,18,17,0.9444,0.444714,1.0,2193.0,2.0,2.0,How many babies are visible in the scene?,1.0,5005.0,4.0,4.0,What is the position of the babies?,47.0,2.0,,,,,0.5625,0.8,0.5,9.0,4.0,5.0,2.3086708260869564,-2.3277458260869563,1.1150858190912176,0.2577925144752665,-0.9390467955428824,-2.020798489280696,-2.8561479741452325,3.165331783099282,1.1156503101397945
Encode-Decode_Experiment-12-1,2348899,encoding,1.566717,0.75,0.496167,0.162016,12,9,False,0.211917,,26,0,26,26,1.0,0.211917,1.0,4705.0,4.0,4.0,What is the woman doing?,1.0,6461.0,1.0,1.0,Where is the woman located relative to the man? (from your perspective),1.0,2.0,,,,,0.43478260869565216,0.16666666666666666,0.5294117647058824,10.0,1.0,9.0,3.1914342799999997,-1.6247172799999998,1.3974960096575266,0.13863135122977524,0.15913182579600532,-1.4104745407068302,-1.4321758620463645,0.2558844067335024,2.130392517564454
Encode-Decode_Experiment-12-1,2362704,encoding,0.488559,0.166667,0.130375,0.074283,24,4,False,0.241483,0.322712,9,20,30,29,0.9667,0.298547,1.0,4769.0,4.0,4.0,What are the bears doing with the pumpkins?,1.0,1435.0,2.0,2.0,How many bears are in the scene?,3.0,2.0,,,,,0.5555555555555556,0.2,0.5714285714285714,5.0,1.0,4.0,0.26959632,0.21896268000000002,0.9987298070590178,0.21728616172690426,-0.5875045969034991,0.19008924771510816,-0.7201898059969305,0.6036072540173928,-1.2282788095333517
Encode-Decode_Experiment-12-1,2412687,encoding,1.598289,0.6,0.370667,0.143487,15,9,False,0.115768,0.140906,17,7,31,24,0.7742,0.118383,1.0,4546.0,4.0,4.0,What is the dog biting onto in the scene?,1.0,3800.0,3.0,3.0,What is the human's body position?,4.0,2.0,,,,,0.06666666666666667,0.0,0.1111111111111111,1.0,0.0,1.0,1.3880728181818183,0.2102161818181818,1.1189687657421192,0.2673871939639434,0.18099578742080322,0.18249610325997367,-0.542193291984572,-0.8749146206458783,0.057417042154479195
Encode-Decode_Experiment-12-1,2379478,encoding,2.782982,0.722222,0.341778,0.136704,18,13,False,0.388866,0.249042,29,4,33,33,1.0,0.371917,1.0,2555.0,2.0,2.0,How many babies are visible in the scene?,1.0,4318.0,4.0,4.0,What is the position of the babies?,5.0,2.0,,,,,0.4375,0.4,0.5,7.0,2.0,5.0,2.3086708260869564,0.47431117391304367,1.1150858190912176,0.2577925144752665,1.001408884125687,0.4117663075369752,-0.18620026395985498,2.33696436695934,1.1156503101397945
Encode-Decode_Experiment-12-1,2374670,encoding,0.249412,0.318182,0.289955,0.113175,22,7,False,0.15559,0.127896,18,14,33,32,0.9697,0.139603,0.0,5477.0,4.0,1.0,What vehicle sprays water in the scene?,1.0,3700.0,3.0,3.0,Where is the man standing relative to the vehicle?,6.0,1.0,,,,,0.3684210526315789,0.2857142857142857,0.45454545454545453,7.0,2.0,5.0,1.4181374,-1.1687254,0.9602877439653179,0.18897085580323902,-0.7531165578399467,-1.014611860210785,-0.18620026395985498,-0.4065719559452396,0.09197647025976433
Encode-Decode_Experiment-12-1,2347400,encoding,1.382448,0.263158,0.141895,0.087716,19,5,False,0.173668,0.287058,14,13,30,27,0.9,0.223652,1.0,7922.0,3.0,3.0,What are the men doing with the wine?,1.0,2618.0,1.0,1.0,What are the men sitting on in the scene?,7.0,2.0,,,,,0.5,0.375,0.5833333333333334,10.0,3.0,7.0,0.96349252,0.41895547999999994,1.0807221101664743,0.14817733206914757,0.031523491048765104,0.3637100715944928,-0.7201898059969305,-0.1939583581234794,-0.43064071227140616
Encode-Decode_Experiment-12-1,2408717,encoding,0.357366,0.217391,0.185,0.090639,23,5,False,0.307717,0.204369,11,19,32,30,0.9375,0.248498,1.0,5172.0,2.0,2.0,How many surfers are in the scene?,1.0,4703.0,3.0,3.0,What are the surfers doing with the surfboards?,8.0,2.0,,,,,0.4375,0.2857142857142857,0.4444444444444444,7.0,2.0,4.0,0.50710532,-0.14973931999999995,0.7595067787911068,0.17980747806102687,-0.6783572105308302,-0.12999400031170533,-0.3641967779722135,1.3825788790935343,-0.9552607027292109
Encode-Decode_Experiment-12-1,2410309,encoding,0.27344,0.3,0.26725,0.11977,20,6,False,0.422645,0.22628,14,14,29,28,0.9655,0.320055,1.0,3377.0,4.0,4.0,How many laptops or electronic devices are visible?,1.0,4521.0,2.0,2.0,What is the baby touching?,12.0,2.0,,,,,0.47058823529411764,0.42857142857142855,0.4166666666666667,8.0,3.0,5.0,0.21797884,0.05546116000000001,0.9212760864035131,0.2249985373471005,-0.736476900234453,0.04814779478314408,-0.898186320009289,2.734235897041276,-1.2876134312428473
Encode-Decode_Experiment-12-1,2371471,encoding,3.127066,0.64,0.30496,0.107142,25,16,False,0.410398,0.467525,25,6,31,31,1.0,0.421455,1.0,14130.0,2.0,2.0,What stunt is one motorcyclist performing?,0.0,7842.0,1.0,3.0,What is nearest to the motorcyclists?,13.0,1.0,,,,,0.35,0.2,0.3333333333333333,7.0,1.0,5.0,1.608111409090909,1.5189545909090911,1.2444983048226859,0.21932342966135415,1.2396908862702116,1.3186582092405836,-0.542193291984572,2.590200122479759,0.3103528025418783
Encode-Decode_Experiment-12-1,2356991,encoding,-0.476864,0.166667,0.2155,0.102405,24,4,False,0.14828,0.172787,7,23,30,30,1.0,0.167069,1.0,6140.0,1.0,1.0,How is the player on the left (from your perspective) reaching the base?,0.0,10852.0,1.0,2.0,What is the current action of the gloved player on the base?,14.0,1.0,,,,,0.375,0.2857142857142857,0.4,6.0,2.0,4.0,0.9458675599999999,-1.42273156,1.1125880103838632,0.23763702187720387,-1.2560707765467645,-1.2351235924813406,-0.7201898059969305,-0.4925441542015219,-0.4509007159415775
Encode-Decode_Experiment-12-1,2349475,encoding,0.903512,0.285714,0.19619,0.099084,21,6,False,0.06314,0.06219,12,15,30,27,0.9,0.073385,1.0,4695.0,1.0,1.0,What is the man doing to power the blender?,1.0,4553.0,3.0,3.0,Which part of the blender is the woman holding?,15.0,2.0,,,,,0.55,0.3,0.6153846153846154,11.0,3.0,8.0,1.31280844,-0.40929644,1.227799028890046,0.14645571126562063,-0.30014502297423507,-0.3553247173083189,-0.7201898059969305,-1.4938674044805729,-0.029099839483652048
Encode-Decode_Experiment-12-1,2370664,encoding,1.792974,0.36,0.20424,0.086872,25,9,False,0.158935,0.098141,17,15,32,32,1.0,0.130438,1.0,3163.0,1.0,1.0,Where are the people located in the scene?,1.0,2855.0,4.0,4.0,How many donuts are in the scene?,16.0,2.0,,,,,0.35,0.2857142857142857,0.2857142857142857,7.0,2.0,4.0,1.0331027083333333,0.7598712916666668,1.4230378648389013,0.23109694308114348,0.3158173181734879,0.6596711466685747,-0.3641967779722135,-0.36723173663371256,-0.35062335784253673
Encode-Decode_Experiment-12-1,2394020,encoding,3.928929,0.782609,0.335478,0.113805,23,18,False,0.297217,0.201905,26,2,31,28,0.9032,0.305749,1.0,2564.0,2.0,2.0,What are the riders wearing on their heads?,1.0,6988.0,1.0,1.0,Where is the scene taking place?,17.0,2.0,,,,,0.35,0.14285714285714285,0.5,7.0,1.0,6.0,1.8755769599999998,2.05335204,1.0536561159866344,0.1998541134594599,1.7949899443072457,1.782587537647432,-0.542193291984572,1.2590894014340317,0.6178061552338879
Encode-Decode_Experiment-12-1,2345035,encoding,-0.513364,0.315789,0.383895,0.132665,19,6,False,0.180412,0.292083,14,13,34,27,0.7941,0.226322,1.0,3588.0,2.0,2.0,Who runs toward the football in the scene?,0.0,8018.0,2.0,3.0,What are the people doing with the football?,18.0,1.0,,,,,0.38095238095238093,0.2,0.4666666666666667,8.0,1.0,7.0,0.46755884000000003,-0.9809228400000001,1.1972681039047701,0.2321196304141944,-1.2813474330558585,-0.8515738148718649,-0.008203749947496489,-0.11464283075817612,-1.0007196331291865
Encode-Decode_Experiment-12-1,2369373,encoding,2.49022,0.647059,0.327706,0.128243,17,11,False,0.229375,0.075314,21,2,24,23,0.9583,0.21144,1.0,2801.0,3.0,3.0,What tool is the chef using?,1.0,4471.0,3.0,3.0,What is the appearance of the oven?,20.0,2.0,,,,,0.4,0.25,0.4166666666666667,6.0,1.0,5.0,1.0903323333333332,1.3998876666666666,1.2117571324896848,0.30599341805477037,0.7986679385663603,1.215292000638304,-1.7881688900710815,0.46120624492203505,-0.2848375397446503
Encode-Decode_Experiment-12-1,2360001,encoding,1.04886,0.333333,0.215133,0.112694,15,5,False,0.338907,0.117954,9,14,23,23,1.0,0.204414,1.0,4385.0,4.0,4.0,What are the workers doing to the clock?,1.0,5966.0,4.0,4.0,Where are the men standing?,21.0,2.0,,,,,0.4,0.2857142857142857,0.5454545454545454,8.0,2.0,6.0,1.39867536,-0.34981536,1.2351857496936403,0.20068632240389478,-0.1994899141993361,-0.3036870877794779,-1.96616540408344,1.7494014322554274,0.06960473143998706
Encode-Decode_Experiment-12-1,2344622,encoding,1.079607,0.277778,0.175444,0.094788,18,5,False,0.195878,0.182635,17,15,32,32,1.0,0.18967,1.0,3553.0,4.0,4.0,What is the cat resting its head on?,1.0,2338.0,2.0,2.0,Where is the cat located?,22.0,2.0,,,,,0.42857142857142855,0.4,0.4,6.0,2.0,4.0,0.5613143333333334,0.5182926666666666,1.098197097356931,0.224707736831677,-0.1781972742627575,0.4499481971216463,-0.3641967779722135,0.0672512893829539,-0.892947096962747
Encode-Decode_Experiment-12-1,2385550,encoding,0.806193,0.230769,0.163308,0.083679,26,6,False,0.187256,0.225803,11,21,32,32,1.0,0.212552,1.0,4594.0,3.0,3.0,Which side of the frame is the boy on? (from your perspective),1.0,2877.0,4.0,4.0,Where are the tangerines in the scene?,23.0,2.0,,,,,0.3888888888888889,0.25,0.42857142857142855,7.0,1.0,6.0,1.8192903599999999,-1.0130973599999997,1.3236604318085095,0.2042747449101898,-0.36753951433885235,-0.8795056537696836,-0.3641967779722135,-0.034151213129448826,0.553104350374106
Encode-Decode_Experiment-12-1,2409918,encoding,2.437274,0.8125,0.475812,0.138141,16,13,False,0.105191,,29,0,31,29,0.9355,0.116702,0.0,7279.0,3.0,2.0,What is the elephant on the right (from your perspective) doing with its trunk?,1.0,3754.0,4.0,4.0,Where are the elephants in the scene?,25.0,1.0,,,,,0.5625,0.3333333333333333,0.7,9.0,2.0,7.0,2.2086372,0.22863679999999986,1.374986653984867,0.13678792892649555,0.7620022438942919,0.19848769348269582,-0.542193291984572,-0.9993096878082169,1.000661020424398
Encode-Decode_Experiment-12-1,2347025,encoding,0.835642,0.722222,0.614611,0.128777,18,13,False,0.083014,0.033475,26,1,28,27,0.9643,0.080254,1.0,3188.0,1.0,1.0,Where is the baby in relation to the mother?,1.0,4422.0,2.0,2.0,Who is holding the umbrella in the scene?,26.0,2.0,,,,,0.4666666666666667,0.5,0.4166666666666667,7.0,2.0,5.0,0.86743224,-0.03179023999999997,1.3883500714462078,0.16966197330334568,-0.34714575385840546,-0.02759823183696297,-1.0761828340216475,-1.2601312255277204,-0.5410626153768703
Encode-Decode_Experiment-12-1,2383555,encoding,0.882377,0.375,0.277958,0.109978,24,9,False,0.206303,0.170577,16,15,32,31,0.9688,0.185409,0.0,2500.0,3.0,2.0,Who is holding the child in the boat?,1.0,5224.0,4.0,4.0,What is the woman at the back doing in the boat?,27.0,1.0,,,,,0.2857142857142857,0.2,0.36363636363636365,6.0,2.0,4.0,0.18494877272727273,0.6974282272727272,0.9762266413569836,0.2505405411716091,-0.3147812458597064,0.6054621137152422,-0.3641967779722135,0.1898586993448883,-1.3255817037479458
Encode-Decode_Experiment-12-1,2387122,encoding,0.35523,0.470588,0.420118,0.142078,17,8,False,0.131836,0.071836,19,6,26,25,0.9615,0.122484,1.0,3195.0,3.0,3.0,Where is the polar bear located in the scene?,1.0,6460.0,1.0,1.0,What is the polar bear doing next to the enclosure edge?,32.0,2.0,,,,,0.47058823529411764,0.2,0.5833333333333334,8.0,1.0,7.0,0.95652488,-0.60129488,0.8173197834419076,0.1703801241070615,-0.6798364143199652,-0.5220053544930406,-1.4321758620463645,-0.6859404371189367,-0.43865005878750785
Encode-Decode_Experiment-12-1,2411268,encoding,3.118175,0.777778,0.384611,0.126089,18,14,False,0.151452,0.139584,24,2,28,26,0.9286,0.14773,1.0,7147.0,2.0,2.0,What is the child holding while picking fruit?,1.0,5309.0,4.0,4.0,Where is the fruit branch relative to the child?,35.0,2.0,,,,,0.6111111111111112,0.3333333333333333,0.6428571428571429,11.0,2.0,9.0,1.9221291363636366,1.1960458636363633,1.2389603981676889,0.26263048542262296,1.233533769749051,1.038329721080337,-1.0761828340216475,-0.45523857104571785,0.6713181781821239
Encode-Decode_Experiment-12-1,2397102,encoding,1.238677,0.428571,0.28519,0.115753,21,9,False,0.085259,0.18614,19,10,31,29,0.9355,0.118279,1.0,2848.0,3.0,3.0,What is the man holding besides the cake knife?,1.0,2213.0,1.0,1.0,What are the couple doing with the cake?,46.0,2.0,,,,,0.38095238095238093,0.4,0.3157894736842105,8.0,2.0,6.0,2.26796708,-1.02929008,1.2376148443473476,0.23108201096190967,-0.06803952766271351,-0.893563126774953,-0.542193291984572,-1.2337279991138552,1.068861095009011
Encode-Decode_Experiment-12-1,2385851,encoding,-1.348958,0.0,0.113294,0.083986,17,0,False,,0.143996,0,21,22,21,0.9545,0.147182,1.0,2616.0,2.0,2.0,What are the men doing with the suitcases?,0.0,5927.0,4.0,3.0,Where are the men?,48.0,1.0,,,,,0.8125,0.5714285714285714,1.0,13.0,4.0,9.0,-0.2892036363636364,-1.0597543636363638,0.8973895359022799,0.18298126367784998,-1.860005584262982,-0.9200102489905564,-2.1441619180957985,,-1.870622915098347
Encode-Decode_Experiment-12-1,150472,encoding,0.958904,0.458333,0.354917,0.107849,24,11,False,0.09993,0.108113,18,9,29,27,0.931,0.11259,1.0,1991.0,4.0,4.0,How many women are in the scene?,1.0,4824.0,2.0,2.0,Where is the pizza slice located?,49.0,2.0,,,,,0.625,0.25,0.8,10.0,1.0,8.0,1.1604478260869566,-0.20154382608695665,1.5066087866121007,0.18270380898651734,-0.2617854460604887,-0.17496732448878582,-0.898186320009289,-1.0611837965669448,-0.20423933466933228
Encode-Decode_Experiment-13-1,2383555,encoding,-0.941434,0.043478,0.111478,0.07223,23,1,False,0.250284,0.2218,2,24,33,26,0.7879,0.198782,0.0,6222.0,3.0,2.0,Who is holding the child in the boat?,1.0,3642.0,4.0,4.0,What is the woman at the back doing in the boat?,1.0,1.0,,,,,0.3333333333333333,0.2,0.45454545454545453,7.0,2.0,5.0,0.18494877272727273,-1.1263827727272728,0.9762266413569836,0.2505405411716091,-1.5777906755722402,-0.9778527277204723,-0.18620026395985498,0.7071149581013243,-1.3255817037479458
Encode-Decode_Experiment-13-1,2362704,encoding,-0.569881,0.074074,0.113481,0.06915,27,2,False,0.357824,0.25117,3,30,33,33,1.0,0.260866,1.0,4661.0,4.0,4.0,What are the bears doing with the pumpkins?,1.0,1935.0,2.0,2.0,How many bears are in the scene?,2.0,2.0,,,,,0.4444444444444444,0.2,0.42857142857142855,4.0,1.0,3.0,0.26959632,-0.83947732,0.9987298070590178,0.21728616172690426,-1.3204860849989948,-0.728779955710695,-0.18620026395985498,1.9718824273873135,-1.2282788095333517
Encode-Decode_Experiment-13-1,2408717,encoding,0.977161,0.291667,0.207042,0.086603,24,7,False,0.27242,0.165683,15,13,38,28,0.7368,0.225013,1.0,5354.0,3.0,3.0,What are the surfers doing with the surfboards?,1.0,3379.0,2.0,2.0,How many surfers are in the scene?,3.0,2.0,,,,,0.375,0.14285714285714285,0.4444444444444444,6.0,1.0,4.0,0.50710532,0.47005568,0.7595067787911068,0.17980747806102687,-0.24914227022798102,0.4080719627445809,0.7037823061019375,0.9674542988128237,-0.9552607027292109
Encode-Decode_Experiment-13-1,2356991,encoding,1.402613,0.307692,0.182385,0.089339,26,8,False,0.119732,0.180797,14,16,33,30,0.9091,0.156088,1.0,11044.0,2.0,2.0,What is the current action of the gloved player on the base?,1.0,8942.0,1.0,1.0,How is the player on the left (from your perspective) reaching the base?,4.0,2.0,,,,,0.625,0.8571428571428571,0.4,10.0,6.0,4.0,0.9458675599999999,0.45674544000000017,1.1125880103838632,0.23763702187720387,0.04548797813111822,0.3965168725871737,-0.18620026395985498,-0.8282944026037575,-0.4509007159415775
Encode-Decode_Experiment-13-1,2349475,encoding,1.996356,0.458333,0.248625,0.105046,24,11,False,0.100344,0.047474,20,8,35,28,0.8,0.095884,1.0,7850.0,3.0,3.0,Which part of the blender is the woman holding?,1.0,3279.0,1.0,1.0,What is the man doing to power the blender?,5.0,2.0,,,,,0.55,0.3,0.5384615384615384,11.0,3.0,7.0,1.31280844,0.68354756,1.227799028890046,0.14645571126562063,0.45666161828670937,0.5934118154650726,0.16979276406486202,-1.0563147828763702,-0.029099839483652048
Encode-Decode_Experiment-13-1,2385851,encoding,-0.567677,0.090909,0.136545,0.080391,22,2,False,0.103798,0.287702,5,23,30,28,0.9333,0.256344,1.0,4739.0,2.0,2.0,What are the men doing with the suitcases?,0.0,5823.0,4.0,3.0,Where are the men?,7.0,1.0,,,,,0.4375,0.42857142857142855,0.4444444444444444,7.0,3.0,4.0,-0.2892036363636364,-0.2784733636363636,0.8973895359022799,0.18298126367784998,-1.3189597904525279,-0.2417525772078242,-0.7201898059969305,-1.015692625177711,-1.870622915098347
Encode-Decode_Experiment-13-1,2345035,encoding,0.447078,0.428571,0.371048,0.128666,21,9,False,0.15256,0.144497,16,10,35,26,0.7429,0.163761,0.0,6182.0,2.0,3.0,What are the people doing with the football?,1.0,5894.0,2.0,2.0,Who runs toward the football in the scene?,8.0,1.0,,,,,0.42857142857142855,0.6,0.3333333333333333,9.0,3.0,5.0,0.46755884000000003,-0.020480840000000056,1.1972681039047701,0.2321196304141944,-0.616230651387163,-0.017780141657809022,0.16979276406486202,-0.4422074909269818,-1.0007196331291865
Encode-Decode_Experiment-13-1,2347025,encoding,0.571459,0.727273,0.664545,0.109767,22,16,False,0.091097,0.035702,26,4,30,30,1.0,0.083711,1.0,3674.0,1.0,1.0,Where is the baby in relation to the mother?,1.0,3658.0,2.0,2.0,Who is holding the umbrella in the scene?,11.0,2.0,,,,,0.4666666666666667,0.75,0.3333333333333333,7.0,3.0,4.0,0.86743224,-0.2959732399999999,1.3883500714462078,0.16966197330334568,-0.5300954236266798,-0.2569448388894543,-0.7201898059969305,-1.165067849535172,-0.5410626153768703
Encode-Decode_Experiment-13-1,2410309,encoding,0.80925,0.15,0.0894,0.074884,20,3,False,0.2882,0.303889,6,17,23,23,1.0,0.299796,1.0,4719.0,2.0,2.0,What is the baby touching?,1.0,3730.0,4.0,4.0,How many laptops or electronic devices are visible?,12.0,2.0,,,,,0.5882352941176471,0.5714285714285714,0.5,10.0,4.0,6.0,0.21797884,0.59127116,0.9212760864035131,0.2249985373471005,-0.36542250779232355,0.5133034085993071,-1.96616540408344,1.1530413423811048,-1.2876134312428473
Encode-Decode_Experiment-13-1,2347400,encoding,-0.285091,0.25,0.2829,0.115402,20,5,False,0.19563,0.194686,11,18,33,29,0.8788,0.201439,1.0,4850.0,3.0,3.0,What are the men doing with the wine?,1.0,2984.0,1.0,1.0,What are the men sitting on in the scene?,13.0,2.0,,,,,0.4,0.25,0.5,8.0,2.0,6.0,0.96349252,-1.24858352,1.0807221101664743,0.14817733206914757,-1.1232658382257095,-1.0839395189457932,-0.18620026395985498,0.06433458552966281,-0.43064071227140616
Encode-Decode_Experiment-13-1,2367132,encoding,3.972417,0.461538,0.134923,0.082221,26,12,False,0.095807,0.137473,26,8,36,34,0.9444,0.10363,1.0,3504.0,2.0,2.0,How many men are playing in the scene?,0.0,15044.0,2.0,4.0,In which hand(s) are the men holding the controllers?,15.0,1.0,,,,,0.5454545454545454,0.6,0.5,12.0,3.0,9.0,3.2539405,0.7184765,1.3076392498798874,0.1544481949671963,1.8251058686433412,0.6237348637949804,0.3477892780772205,-1.1096739981279093,2.2022438151905788
Encode-Decode_Experiment-13-1,2397102,encoding,2.18961,0.32,0.14304,0.080818,25,8,False,0.086902,0.131221,15,15,33,30,0.9091,0.109785,1.0,3084.0,1.0,1.0,What are the couple doing with the cake?,1.0,5802.0,3.0,3.0,What is the man holding besides the cake knife?,16.0,2.0,,,,,0.8571428571428571,0.8,0.7368421052631579,18.0,4.0,14.0,2.26796708,-0.07835707999999997,1.2376148443473476,0.23108201096190967,0.5904921656020101,-0.06802455281581564,-0.18620026395985498,-1.2144048360858017,1.068861095009011
Encode-Decode_Experiment-13-1,2379478,encoding,3.470931,0.5,0.214687,0.082201,32,16,False,0.359212,0.372775,23,12,35,35,1.0,0.363862,0.0,3873.0,3.0,4.0,What is the position of the babies?,1.0,3325.0,2.0,2.0,How many babies are visible in the scene?,17.0,1.0,,,,,0.625,1.0,0.5,10.0,5.0,5.0,2.3086708260869564,1.1622601739130438,1.1150858190912176,0.2577925144752665,1.4778212284756815,1.0089991687549733,0.16979276406486202,1.9882065602436363,1.1156503101397945
Encode-Decode_Experiment-13-1,2394020,encoding,2.328615,0.764706,0.460882,0.130474,17,13,False,0.215258,0.250507,25,1,31,26,0.8387,0.216909,0.0,5040.0,1.0,2.0,What are the riders wearing on their heads?,0.0,10517.0,4.0,1.0,Where is the scene taking place?,19.0,0.0,,,,,0.3,0.14285714285714285,0.3333333333333333,6.0,1.0,4.0,1.8755769599999998,0.45303804000000025,1.0536561159866344,0.1998541134594599,0.6867546762334247,0.3932983475080188,-0.542193291984572,0.2951775824344927,0.6178061552338879
Encode-Decode_Experiment-13-1,150472,encoding,-0.511376,0.2,0.25465,0.106869,20,4,False,0.068257,0.077041,10,20,31,30,0.9677,0.077114,1.0,3206.0,2.0,2.0,Where is the pizza slice located?,1.0,3176.0,4.0,4.0,How many women are in the scene?,22.0,2.0,,,,,0.625,0.5,0.7,10.0,2.0,7.0,1.1604478260869566,-1.6718238260869567,1.5066087866121007,0.18270380898651734,-1.2799707209150346,-1.4513693996303998,-0.542193291984572,-1.4336868657011754,-0.20423933466933228
Encode-Decode_Experiment-13-1,2356125,encoding,2.12238,0.454545,0.247909,0.097361,22,10,False,0.293852,0.291583,19,8,33,27,0.8182,0.293749,1.0,6255.0,1.0,1.0,Where is the luggage being moved to?,1.0,5479.0,2.0,2.0,How many uniformed staff are moving the luggage?,24.0,2.0,,,,,0.45,0.5714285714285714,0.38461538461538464,9.0,4.0,5.0,0.6897172916666667,1.4326627083333334,0.9511521402039089,0.2935832474587162,0.5439346418456705,1.243745173636771,-0.18620026395985498,1.2195139640698196,-0.7453470793119731
Encode-Decode_Experiment-13-1,2360001,encoding,0.852272,0.178571,0.120893,0.067676,28,5,False,0.281527,0.329262,12,22,34,34,1.0,0.312414,0.0,6756.0,2.0,4.0,Where are the men standing?,1.0,4500.0,4.0,4.0,What are the workers doing to the clock?,25.0,1.0,,,,,0.45,0.42857142857142855,0.5454545454545454,9.0,3.0,6.0,1.39867536,-0.5464033599999999,1.2351857496936403,0.20068632240389478,-0.33562929364617977,-0.4743520843433565,-0.008203749947496489,1.0745608391028325,0.06960473143998706
Encode-Decode_Experiment-13-1,2371471,encoding,2.665161,0.521739,0.247565,0.102873,23,12,False,0.265591,0.546979,24,8,32,32,1.0,0.335938,0.0,7127.0,1.0,3.0,What is nearest to the motorcyclists?,1.0,6087.0,2.0,2.0,What stunt is one motorcyclist performing?,26.0,1.0,,,,,0.5,0.6,0.4,10.0,3.0,6.0,1.608111409090909,1.057049590909091,1.2444983048226859,0.21932342966135415,0.9198165294254682,0.9176621401120587,-0.3641967779722135,0.8871390947236105,0.3103528025418783
Encode-Decode_Experiment-13-1,2348899,encoding,2.057856,0.47619,0.250286,0.109777,21,10,False,0.15063,0.129168,22,8,30,30,1.0,0.144907,1.0,6089.0,4.0,4.0,What is the woman doing?,1.0,6644.0,1.0,1.0,Where is the woman located relative to the man? (from your perspective),27.0,2.0,,,,,0.6086956521739131,0.3333333333333333,0.7058823529411765,14.0,2.0,12.0,3.1914342799999997,-1.1335782799999996,1.3974960096575266,0.13863135122977524,0.49925105322668994,-0.9840994021053547,-0.7201898059969305,-0.4649060330110619,2.130392517564454
Encode-Decode_Experiment-13-1,2369373,encoding,0.563401,0.444444,0.366222,0.138839,18,8,False,0.227792,0.204199,19,7,28,26,0.9286,0.213981,1.0,4028.0,3.0,3.0,What tool is the chef using?,1.0,4322.0,3.0,3.0,What is the appearance of the oven?,28.0,2.0,,,,,0.6,0.5,0.5833333333333334,9.0,2.0,7.0,1.0903323333333332,-0.5269313333333332,1.2117571324896848,0.30599341805477037,-0.5356756783705231,-0.4574477292242321,-1.0761828340216475,0.44258873605203575,-0.2848375397446503
Encode-Decode_Experiment-13-1,2386442,encoding,2.44309,0.695652,0.395913,0.122689,23,16,False,0.127344,0.099366,32,3,35,35,1.0,0.124946,1.0,6171.0,1.0,1.0,Who is brushing their teeth in the scene?,1.0,7296.0,3.0,3.0,What is the person on the right wearing?,29.0,2.0,,,,,0.5,0.6666666666666666,0.38461538461538464,9.0,4.0,5.0,2.784380391304348,-0.3412903913043479,1.4251312351743972,0.2774649513164166,0.7660298886684536,-0.2962862609072851,0.16979276406486202,-0.7387704117519353,1.6624814823659972
Encode-Decode_Experiment-13-1,2387122,encoding,0.600094,0.461538,0.360231,0.16882,13,6,False,0.156238,0.374332,9,7,19,16,0.8421,0.261716,1.0,7180.0,1.0,1.0,What is the polar bear doing next to the enclosure edge?,1.0,5457.0,3.0,3.0,Where is the polar bear located in the scene?,30.0,2.0,,,,,0.47058823529411764,0.4,0.5,8.0,2.0,6.0,0.95652488,-0.35643088,0.8173197834419076,0.1703801241070615,-0.5102653672119426,-0.3094302546974397,-2.6781514601328738,-0.3989508910382534,-0.43865005878750785
Encode-Decode_Experiment-13-1,2370664,encoding,-1.017978,0.058824,0.166882,0.106151,17,1,False,0.104568,0.133365,2,24,26,26,1.0,0.13115,1.0,5084.0,4.0,4.0,How many donuts are in the scene?,1.0,3212.0,1.0,1.0,Where are the people located in the scene?,31.0,2.0,,,,,0.15,0.14285714285714285,0.14285714285714285,3.0,1.0,2.0,1.0331027083333333,-2.051080708333333,1.4230378648389013,0.23109694308114348,-1.630798248060791,-1.7806157142854409,-1.4321758620463645,-1.0066367301493475,-0.35062335784253673
Encode-Decode_Experiment-13-1,2409918,encoding,-1.778182,0.142857,0.505714,0.204061,7,1,False,0.100713,0.241141,2,7,10,9,0.9,0.217613,1.0,5887.0,4.0,4.0,Where are the elephants in the scene?,0.0,6895.0,4.0,2.0,What is the elephant on the right (from your perspective) doing with its trunk?,36.0,1.0,,,,,0.5,0.16666666666666666,0.7,8.0,1.0,7.0,2.2086372,-3.9868192000000002,1.374986653984867,0.13678792892649555,-2.1572479846317334,-3.461098770366481,-4.2801200862441,-1.0519750098043363,1.000661020424398
Encode-Decode_Experiment-13-1,2385550,encoding,3.342677,0.464286,0.199464,0.079224,28,13,False,0.283041,0.31204,23,11,34,34,1.0,0.292423,1.0,4891.0,3.0,3.0,Which side of the frame is the boy on? (from your perspective),1.0,3565.0,4.0,4.0,Where are the tangerines in the scene?,37.0,2.0,,,,,0.6111111111111112,0.75,0.5714285714285714,11.0,3.0,8.0,1.8192903599999999,1.5233866400000002,1.3236604318085095,0.2042747449101898,1.3890039050806853,1.3225058278280404,-0.008203749947496489,1.092366845691069,0.553104350374106
Encode-Decode_Experiment-13-1,2374670,encoding,0.226189,0.473684,0.443421,0.133796,19,9,False,0.237692,0.276194,25,7,35,32,0.9143,0.259207,1.0,5496.0,3.0,3.0,Where is the man standing relative to the vehicle?,1.0,4751.0,1.0,1.0,What vehicle sprays water in the scene?,41.0,2.0,,,,,0.47368421052631576,0.5714285714285714,0.36363636363636365,9.0,4.0,4.0,1.4181374,-1.1919484,0.9602877439653179,0.18897085580323902,-0.7691987439799657,-1.0347725679610187,0.16979276406486202,0.5590216721309951,0.09197647025976433
Encode-Decode_Experiment-13-1,2344622,encoding,1.476616,0.304348,0.16613,0.093604,23,7,False,0.166774,0.290839,15,13,33,28,0.8485,0.25128,1.0,3713.0,4.0,4.0,What is the cat resting its head on?,1.0,4659.0,2.0,2.0,Where is the cat located?,44.0,2.0,,,,,1.0,1.0,0.9,14.0,5.0,9.0,0.5613143333333334,0.9153016666666666,1.098197097356931,0.224707736831677,0.09673587981995352,0.7946057531313159,-0.18620026395985498,-0.2750380208839182,-0.892947096962747
Encode-Decode_Experiment-14-1,2369373,encoding,1.436457,0.444444,0.269333,0.121905,18,8,False,0.201006,0.326698,14,8,25,22,0.88,0.222772,0.0,5927.0,2.0,3.0,What is the appearance of the oven?,1.0,4681.0,3.0,3.0,What tool is the chef using?,1.0,1.0,,,,,0.9333333333333333,0.75,0.9166666666666666,14.0,3.0,11.0,1.0903323333333332,0.34612466666666686,1.2117571324896848,0.30599341805477037,0.06892532505971496,0.3004830663486091,-1.610172376058723,0.12756119809132796,-0.2848375397446503
Encode-Decode_Experiment-14-1,2397102,encoding,3.841226,0.37931,0.122724,0.066798,29,11,False,0.11555,0.149194,21,15,37,36,0.973,0.126972,1.0,4256.0,1.0,1.0,What are the couple doing with the cake?,1.0,4480.0,3.0,3.0,What is the man holding besides the cake knife?,2.0,2.0,,,,,0.6666666666666666,0.4,0.631578947368421,14.0,2.0,12.0,2.26796708,1.5732589199999998,1.2376148443473476,0.23108201096190967,1.7342546400382843,1.3658017181918098,0.525785792089579,-0.8774784974201422,1.068861095009011
Encode-Decode_Experiment-14-1,2350974,encoding,2.712301,0.6,0.28845,0.114866,20,12,False,0.287804,0.272957,27,3,33,30,0.9091,0.279347,1.0,12366.0,4.0,4.0,Between which two objects is the child standing?,1.0,3297.0,1.0,1.0,What is the child up against?,3.0,2.0,,,,,0.0,0.0,0.0,0.0,0.0,0.0,1.9028379333333334,0.8094630666666667,1.2721781249490671,0.38083073836292586,0.9524615044347478,0.7027235207197459,-0.18620026395985498,1.1483840249379462,0.6491428175460735
Encode-Decode_Experiment-14-1,2362704,encoding,1.405212,0.173913,0.082522,0.065037,23,4,False,0.323391,0.188194,9,19,30,28,0.9333,0.248635,1.0,2038.0,2.0,2.0,How many bears are in the scene?,1.0,3418.0,4.0,4.0,What are the bears doing with the pumpkins?,4.0,2.0,,,,,0.6666666666666666,0.4,0.5714285714285714,6.0,2.0,4.0,0.26959632,1.13561568,0.9987298070590178,0.21728616172690426,0.04728781457679303,0.9858681411128186,-0.7201898059969305,1.5669192669825853,-1.2282788095333517
Encode-Decode_Experiment-14-1,2347025,encoding,0.138287,0.684211,0.667737,0.119127,19,13,False,0.144578,0.062884,21,4,29,25,0.8621,0.129955,1.0,6163.0,1.0,1.0,Where is the baby in relation to the mother?,0.0,4779.0,3.0,2.0,Who is holding the umbrella in the scene?,5.0,1.0,,,,,0.5333333333333333,0.75,0.4166666666666667,8.0,3.0,5.0,0.86743224,-0.72914524,1.3883500714462078,0.16966197330334568,-0.8300718579652366,-0.6329967743665358,-0.898186320009289,-0.536083015753472,-0.5410626153768703
Encode-Decode_Experiment-14-1,2408717,encoding,1.009447,0.26087,0.178,0.082094,23,6,False,0.321244,0.267482,12,14,33,26,0.7879,0.264068,1.0,2100.0,2.0,2.0,How many surfers are in the scene?,1.0,4261.0,3.0,3.0,What are the surfers doing with the surfboards?,6.0,2.0,,,,,0.5625,0.14285714285714285,0.7777777777777778,9.0,1.0,7.0,0.50710532,0.50234168,0.7595067787911068,0.17980747806102687,-0.22678385565119705,0.43610058137370067,-0.18620026395985498,1.5416686090268754,-0.9552607027292109
Encode-Decode_Experiment-14-1,2383555,encoding,-0.84846,0.045455,0.107,0.072538,22,1,False,0.40903,0.212643,2,23,32,25,0.7812,0.213888,1.0,4001.0,2.0,2.0,Who is holding the child in the boat?,1.0,3810.0,4.0,4.0,What is the woman at the back doing in the boat?,7.0,2.0,,,,,0.0,0.0,0.0,0.0,0.0,0.0,0.18494877272727273,-1.0334087727272727,0.9762266413569836,0.2505405411716091,-1.513405145098911,-0.897138709619011,-0.3641967779722135,2.5741112076761214,-1.3255817037479458
Encode-Decode_Experiment-14-1,2347400,encoding,2.033132,0.375,0.195417,0.088328,24,9,False,0.190789,0.219729,20,11,36,31,0.8611,0.205055,1.0,4992.0,3.0,3.0,What are the men doing with the wine?,1.0,2760.0,1.0,1.0,What are the men sitting on in the scene?,8.0,2.0,,,,,0.5,0.375,0.5833333333333334,10.0,3.0,7.0,0.96349252,1.0696394800000002,1.0807221101664743,0.14817733206914757,0.48212940786968056,0.9285918681648374,0.3477892780772205,0.0074000558773149455,-0.43064071227140616
Encode-Decode_Experiment-14-1,2409918,encoding,1.515797,0.45,0.28035,0.111921,20,9,False,0.095327,0.10184,20,11,33,31,0.9394,0.104578,0.0,9799.0,1.0,2.0,What is the elephant on the right (from your perspective) doing with its trunk?,1.0,3591.0,4.0,4.0,Where are the elephants in the scene?,9.0,1.0,,,,,0.625,0.5,0.6,10.0,3.0,6.0,2.2086372,-0.6928402,1.374986653984867,0.13678792892649555,0.123869158687976,-0.6014790849508467,-0.18620026395985498,-1.115319231392344,1.000661020424398
Encode-Decode_Experiment-14-1,2356991,encoding,0.473833,0.2,0.15932,0.085853,25,5,False,0.155579,0.201171,8,24,33,32,0.9697,0.189783,1.0,9904.0,2.0,2.0,What is the current action of the gloved player on the base?,1.0,6912.0,1.0,1.0,How is the player on the left (from your perspective) reaching the base?,10.0,2.0,,,,,0.375,0.2857142857142857,0.4,6.0,2.0,4.0,0.9458675599999999,-0.47203455999999994,1.1125880103838632,0.23763702187720387,-0.5977025159104284,-0.4097898984700592,-0.18620026395985498,-0.40670132587421637,-0.4509007159415775
Encode-Decode_Experiment-14-1,2411268,encoding,2.938451,0.555556,0.221056,0.113835,18,10,False,0.157453,0.178419,16,11,33,27,0.8182,0.164798,1.0,7538.0,2.0,2.0,What is the child holding while picking fruit?,1.0,7174.0,4.0,4.0,Where is the fruit branch relative to the child?,11.0,2.0,,,,,0.6111111111111112,0.3333333333333333,0.6428571428571429,11.0,2.0,9.0,1.9221291363636366,1.0163218636363636,1.2389603981676889,0.26263048542262296,1.1090728981205462,0.8823049594344253,-0.18620026395985498,-0.38466139433765356,0.6713181781821239
Encode-Decode_Experiment-14-1,2370664,encoding,0.09714,0.173913,0.166087,0.080565,23,4,False,0.23596,0.091393,12,23,37,35,0.9459,0.147265,1.0,3149.0,4.0,4.0,How many donuts are in the scene?,1.0,5105.0,1.0,1.0,Where are the people located in the scene?,12.0,2.0,,,,,0.35,0.14285714285714285,0.35714285714285715,7.0,1.0,5.0,1.0331027083333333,-0.9359627083333333,1.4230378648389013,0.23109694308114348,-0.858566613729064,-0.8125423342301002,0.525785792089579,0.5386517887684945,-0.35062335784253673
Encode-Decode_Experiment-14-1,2387122,encoding,0.509501,0.5,0.435455,0.126684,22,11,False,0.114624,0.070043,21,8,34,29,0.8529,0.109765,1.0,9959.0,1.0,1.0,What is the polar bear doing next to the enclosure edge?,1.0,3811.0,3.0,3.0,Where is the polar bear located in the scene?,13.0,2.0,,,,,0.6470588235294118,0.8,0.5833333333333334,11.0,4.0,7.0,0.95652488,-0.44702388000000004,0.8173197834419076,0.1703801241070615,-0.5730020286675143,-0.3880772424775253,-0.008203749947496489,-0.8883690932594469,-0.43865005878750785
Encode-Decode_Experiment-14-1,2374670,encoding,1.280649,0.478261,0.332348,0.113937,23,11,False,0.249489,0.191983,18,9,32,27,0.8438,0.235517,1.0,11581.0,3.0,3.0,Where is the man standing relative to the vehicle?,1.0,5812.0,1.0,1.0,What vehicle sprays water in the scene?,15.0,2.0,,,,,0.3684210526315789,0.2857142857142857,0.36363636363636365,7.0,2.0,4.0,1.4181374,-0.13748840000000007,0.9602877439653179,0.18897085580323902,-0.03897345021066703,-0.11935854331685146,-0.3641967779722135,0.6977650405071046,0.09197647025976433
Encode-Decode_Experiment-14-1,2344622,encoding,0.544709,0.25,0.19535,0.100329,20,5,False,0.154286,0.213588,10,15,31,25,0.8065,0.213326,1.0,4246.0,4.0,4.0,What is the cat resting its head on?,1.0,5657.0,2.0,2.0,Where is the cat located?,16.0,2.0,,,,,0.14285714285714285,0.2,0.1,2.0,1.0,1.0,0.5613143333333334,-0.01660533333333336,1.098197097356931,0.224707736831677,-0.5486200965477283,-0.014415677235006204,-0.542193291984572,-0.4219081729802864,-0.892947096962747
Encode-Decode_Experiment-14-1,2356125,encoding,0.717822,0.296296,0.231481,0.090294,27,8,False,0.280217,0.247689,17,13,36,30,0.8333,0.255928,0.0,6148.0,4.0,2.0,How many uniformed staff are moving the luggage?,1.0,4147.0,1.0,1.0,Where is the luggage being moved to?,17.0,1.0,,,,,0.0,0.0,0.0,0.0,0.0,0.0,0.6897172916666667,0.028104708333333228,0.9511521402039089,0.2935832474587162,-0.42873741604748683,0.024398691431507153,0.3477892780772205,1.05915405665198,-0.7453470793119731
Encode-Decode_Experiment-14-1,2360001,encoding,2.320179,0.269231,0.1145,0.066689,26,7,False,0.371708,0.245339,14,17,32,31,0.9688,0.318284,1.0,4558.0,4.0,4.0,Where are the men standing?,1.0,5194.0,4.0,4.0,What are the workers doing to the clock?,18.0,2.0,,,,,0.4,0.5714285714285714,0.36363636363636365,8.0,4.0,4.0,1.39867536,0.9215036400000001,1.2351857496936403,0.20068632240389478,0.6809126522797063,0.7999899055598599,-0.3641967779722135,2.1351707995610782,0.06960473143998706
Encode-Decode_Experiment-14-1,2367132,encoding,2.619632,0.428571,0.179952,0.094906,21,9,False,0.109982,0.086747,22,8,33,30,0.9091,0.100056,1.0,7143.0,4.0,4.0,In which hand(s) are the men holding the controllers?,1.0,3069.0,2.0,2.0,How many men are playing in the scene?,19.0,2.0,,,,,0.5,0.6,0.4444444444444444,11.0,3.0,8.0,3.2539405,-0.6343084999999999,1.3076392498798874,0.1544481949671963,0.8882871898582754,-0.5506656457817316,-0.18620026395985498,-0.9429632032875812,2.2022438151905788
Encode-Decode_Experiment-14-1,2371471,encoding,-0.129305,0.333333,0.347542,0.109883,24,8,False,0.352704,0.488962,19,13,32,32,1.0,0.408059,1.0,9321.0,2.0,2.0,What stunt is one motorcyclist performing?,1.0,5747.0,3.0,3.0,What is nearest to the motorcyclists?,21.0,2.0,,,,,0.5,0.4,0.4666666666666667,10.0,2.0,7.0,1.608111409090909,-1.737416409090909,1.2444983048226859,0.21932342966135415,-1.0153822982003466,-1.508312641094708,-0.3641967779722135,1.9116666059000136,0.3103528025418783
Encode-Decode_Experiment-14-1,2349475,encoding,-0.367195,0.068966,0.089241,0.055218,29,2,False,0.111236,0.069909,4,29,35,33,0.9429,0.077785,0.0,6205.0,2.0,1.0,What is the man doing to power the blender?,1.0,3986.0,3.0,3.0,Which part of the blender is the woman holding?,27.0,1.0,,,,,0.4,0.2,0.46153846153846156,8.0,2.0,6.0,1.31280844,-1.68000344,1.227799028890046,0.14645571126562063,-1.1801237726372893,-1.458470411799827,0.16979276406486202,-0.9282150313842463,-0.029099839483652048
Encode-Decode_Experiment-14-1,2410309,encoding,0.556816,0.291667,0.238125,0.096157,24,7,False,0.138473,0.263642,14,16,32,30,0.9375,0.204776,1.0,3562.0,4.0,4.0,How many laptops or electronic devices are visible?,1.0,4495.0,2.0,2.0,What is the baby touching?,30.0,2.0,,,,,0.29411764705882354,0.14285714285714285,0.3333333333333333,5.0,1.0,4.0,0.21797884,0.33883715999999997,0.9212760864035131,0.2249985373471005,-0.5402358642092187,0.29415652403561976,-0.3641967779722135,-0.6078833263354969,-1.2876134312428473
Encode-Decode_Experiment-14-1,150472,encoding,1.234119,0.363636,0.240136,0.100071,22,8,False,0.095566,0.081963,18,13,31,31,1.0,0.089862,1.0,2356.0,4.0,4.0,How many women are in the scene?,1.0,3474.0,2.0,2.0,Where is the pizza slice located?,31.0,2.0,,,,,0.375,0.25,0.5,6.0,1.0,5.0,1.1604478260869566,0.07367117391304334,1.5066087866121007,0.18270380898651734,-0.07119599342623276,0.06395655199059176,-0.542193291984572,-1.112508375662761,-0.20423933466933228
Encode-Decode_Experiment-14-1,2386442,encoding,3.735814,0.692308,0.293846,0.10666,26,18,False,0.114149,0.106087,26,7,33,33,1.0,0.112439,1.0,5893.0,3.0,3.0,What is the person on the right wearing?,1.0,5111.0,1.0,1.0,Who is brushing their teeth in the scene?,32.0,2.0,,,,,0.0,0.0,0.0,0.0,0.0,0.0,2.784380391304348,0.9514336086956519,1.4251312351743972,0.2774649513164166,1.661255656040021,0.8259731700754988,-0.18620026395985498,-0.8939555220107102,1.6624814823659972
Encode-Decode_Experiment-14-1,2394020,encoding,3.142319,0.636364,0.301136,0.106681,22,14,False,0.276657,0.296235,19,8,33,27,0.8182,0.293586,0.0,5297.0,4.0,1.0,Where is the scene taking place?,1.0,4901.0,2.0,2.0,What are the riders wearing on their heads?,33.0,1.0,,,,,0.6,0.2857142857142857,0.75,12.0,2.0,9.0,1.8755769599999998,1.2667420400000002,1.0536561159866344,0.1998541134594599,1.250253758646464,1.0997035724658717,-0.18620026395985498,1.0172852432740913,0.6178061552338879
Encode-Decode_Experiment-14-1,2385851,encoding,0.548615,0.136364,0.0995,0.067194,22,3,False,0.125317,0.240421,6,18,27,24,0.8889,0.226293,1.0,2432.0,2.0,2.0,What are the men doing with the suitcases?,1.0,9734.0,3.0,3.0,Where are the men?,35.0,2.0,,,,,0.8125,0.5714285714285714,1.0,13.0,4.0,9.0,-0.2892036363636364,0.8378186363636364,0.8973895359022799,0.18298126367784998,-0.5459151480456866,0.7273399937745618,-1.254179348034006,-0.7626097613915364,-1.870622915098347
Encode-Decode_Experiment-14-1,2385550,encoding,-0.836359,0.095238,0.175429,0.095881,21,2,False,0.368029,0.282615,4,22,27,26,0.963,0.288785,1.0,2935.0,4.0,4.0,Where are the tangerines in the scene?,1.0,6075.0,3.0,3.0,Which side of the frame is the boy on? (from your perspective),36.0,2.0,,,,,0.3888888888888889,0.5,0.35714285714285715,7.0,2.0,5.0,1.8192903599999999,-2.65564936,1.3236604318085095,0.2042747449101898,-1.5050250678272248,-2.3054631457630514,-1.254179348034006,2.091902438769716,0.553104350374106
Encode-Decode_Experiment-14-1,2345035,encoding,-0.717731,0.1,0.1709,0.098784,20,2,False,0.109165,0.162186,5,19,33,24,0.7273,0.143989,0.0,7745.0,4.0,3.0,What are the people doing with the football?,1.0,5836.0,2.0,2.0,Who runs toward the football in the scene?,44.0,1.0,,,,,0.47619047619047616,0.2,0.5333333333333333,10.0,1.0,8.0,0.46755884000000003,-1.18528984,1.1972681039047701,0.2321196304141944,-1.422873856639257,-1.0289920364966345,-0.18620026395985498,-0.952571860739754,-1.0007196331291865
Encode-Decode_Experiment-14-1,2379478,encoding,2.698042,0.521739,0.234739,0.106373,23,12,False,0.344475,0.329327,20,8,33,28,0.8485,0.350471,0.0,3323.0,3.0,4.0,What is the position of the babies?,1.0,1994.0,2.0,2.0,How many babies are visible in the scene?,45.0,1.0,,,,,0.5625,0.8,0.5,9.0,4.0,5.0,2.3086708260869564,0.38937117391304366,1.1150858190912176,0.2577925144752665,0.9425869881289074,0.33802688901633376,-0.18620026395985498,1.814886138122866,1.1156503101397945
Encode-Decode_Experiment-14-1,2412687,encoding,-0.388971,0.375,0.430187,0.141881,16,6,False,0.136834,0.129977,12,11,28,23,0.8214,0.129204,1.0,2710.0,4.0,4.0,What is the dog biting onto in the scene?,1.0,7457.0,3.0,3.0,What is the human's body position?,46.0,2.0,,,,,0.0,0.0,0.0,0.0,0.0,0.0,1.3880728181818183,-1.7770438181818182,1.1189687657421192,0.2673871939639434,-1.1952038951617285,-1.5427145966379532,-1.0761828340216475,-0.6271594457530136,0.057417042154479195
Encode-Decode_Experiment-14-1,2348899,encoding,4.824092,0.730769,0.279808,0.093481,26,19,False,0.204805,0.124355,31,1,32,32,1.0,0.202291,1.0,4351.0,1.0,1.0,Where is the woman located relative to the man? (from your perspective),1.0,4085.0,4.0,4.0,What is the woman doing?,58.0,2.0,,,,,0.5652173913043478,0.3333333333333333,0.6470588235294118,13.0,2.0,11.0,3.1914342799999997,1.6326577200000005,1.3974960096575266,0.13863135122977524,2.414900291448348,1.4173679175422211,-0.3641967779722135,0.1722408671987993,2.130392517564454
Encode-Decode_Experiment-15-1,2347025,encoding,-0.104589,0.785714,0.798929,0.126345,14,11,False,0.067175,0.083575,42,2,49,44,0.898,0.079173,1.0,6200.0,2.0,2.0,Who is holding the umbrella in the scene?,1.0,2622.0,1.0,1.0,Where is the baby in relation to the mother?,1.0,2.0,,,,,0.6,0.5,0.5833333333333334,9.0,2.0,7.0,0.86743224,-0.97202124,1.3883500714462078,0.16966197330334568,-0.9982661929324352,-0.8438460210420633,2.6617439602378807,-1.4464121623514212,-0.5410626153768703
Encode-Decode_Experiment-15-1,2374670,encoding,0.823044,0.416667,0.323792,0.112843,24,10,False,0.230862,0.247911,25,9,35,34,0.9714,0.242316,1.0,7792.0,1.0,1.0,What vehicle sprays water in the scene?,0.0,4486.0,2.0,3.0,Where is the man standing relative to the vehicle?,2.0,1.0,,,,,0.42105263157894735,0.42857142857142855,0.36363636363636365,8.0,3.0,4.0,1.4181374,-0.5950934,0.9602877439653179,0.18897085580323902,-0.3558700091652977,-0.5166216303446136,0.16979276406486202,0.47869470713914763,0.09197647025976433
Encode-Decode_Experiment-15-1,2369373,encoding,1.50858,0.4375,0.250875,0.123709,16,7,False,0.185941,0.287374,21,10,37,31,0.8378,0.191001,1.0,4360.0,3.0,3.0,What tool is the chef using?,1.0,3235.0,3.0,3.0,What is the appearance of the oven?,3.0,2.0,,,,,0.6666666666666666,0.5,0.6666666666666666,10.0,2.0,8.0,1.0903323333333332,0.4182476666666668,1.2117571324896848,0.30599341805477037,0.1188713058105477,0.3630955938028617,0.525785792089579,-0.04961680009347235,-0.2848375397446503
Encode-Decode_Experiment-15-1,2371471,encoding,0.760647,0.45,0.35825,0.120621,20,9,False,0.214091,0.578966,21,17,38,38,1.0,0.377325,1.0,5313.0,2.0,2.0,What stunt is one motorcyclist performing?,1.0,8140.0,3.0,3.0,What is nearest to the motorcyclists?,4.0,2.0,,,,,0.5,0.4,0.4666666666666667,10.0,2.0,7.0,1.608111409090909,-0.847464409090909,1.2444983048226859,0.21932342966135415,-0.39908062659537846,-0.7357138302719877,0.7037823061019375,0.2814526090603366,0.3103528025418783
Encode-Decode_Experiment-15-1,2349475,encoding,0.74524,0.285714,0.209952,0.101661,21,6,False,0.088462,0.044051,16,19,37,35,0.9459,0.068249,1.0,4076.0,3.0,3.0,Which part of the blender is the woman holding?,1.0,4491.0,1.0,1.0,What is the man doing to power the blender?,5.0,2.0,,,,,0.7,0.7,0.5384615384615384,14.0,7.0,7.0,1.31280844,-0.56756844,1.227799028890046,0.14645571126562063,-0.4097501456867651,-0.49272623894828776,0.525785792089579,-1.19605782797639,-0.029099839483652048
Encode-Decode_Experiment-15-1,2356125,encoding,0.744871,0.28,0.216,0.085921,25,7,False,0.289355,0.192174,15,25,45,40,0.8889,0.230506,1.0,7624.0,1.0,1.0,Where is the luggage being moved to?,1.0,5413.0,2.0,2.0,How many uniformed staff are moving the luggage?,6.0,2.0,,,,,0.5,0.42857142857142855,0.5384615384615384,10.0,3.0,7.0,0.6897172916666667,0.05515370833333322,0.9511521402039089,0.2935832474587162,-0.410005682296405,0.04788088511604718,1.949757904188447,1.1666251849236495,-0.7453470793119731
Encode-Decode_Experiment-15-1,2386442,encoding,5.329251,0.708333,0.202167,0.094979,24,17,False,0.119667,0.143727,49,4,53,53,1.0,0.121483,1.0,4191.0,3.0,3.0,What is the person on the right wearing?,1.0,2598.0,1.0,1.0,Who is brushing their teeth in the scene?,7.0,2.0,,,,,0.4444444444444444,0.3333333333333333,0.46153846153846156,8.0,2.0,6.0,2.784380391304348,2.544870608695652,1.4251312351743972,0.2774649513164166,2.7647285250230738,2.2092921932598095,3.3737300162873147,-0.8290588612749831,1.6624814823659972
Encode-Decode_Experiment-15-1,2385550,encoding,-0.241808,0.076923,0.098077,0.087482,13,1,False,0.219235,0.15114,7,30,38,37,0.9737,0.176826,1.0,3406.0,4.0,4.0,Where are the tangerines in the scene?,1.0,3460.0,3.0,3.0,Which side of the frame is the boy on? (from your perspective),9.0,2.0,,,,,0.7222222222222222,0.5,0.7857142857142857,13.0,2.0,11.0,1.8192903599999999,-2.06109836,1.3236604318085095,0.2042747449101898,-1.0932918786727472,-1.789312392044357,0.7037823061019375,0.34195069221085866,0.553104350374106
Encode-Decode_Experiment-15-1,2362704,encoding,-0.729997,0.190476,0.26981,0.108676,21,4,False,0.178577,0.16486,13,21,34,34,1.0,0.170104,1.0,1438.0,2.0,2.0,How many bears are in the scene?,1.0,2827.0,4.0,4.0,What are the bears doing with the pumpkins?,11.0,2.0,,,,,0.4444444444444444,0.2,0.42857142857142855,4.0,1.0,3.0,0.26959632,-0.99959332,0.9987298070590178,0.21728616172690426,-1.4313681982485873,-0.8677823189771304,-0.008203749947496489,-0.13622408709200315,-1.2282788095333517
Encode-Decode_Experiment-15-1,2410309,encoding,0.413012,0.25,0.201,0.11864,16,4,False,0.325309,0.279604,6,23,30,29,0.9667,0.288897,1.0,4005.0,2.0,2.0,What is the baby touching?,1.0,3441.0,4.0,4.0,How many laptops or electronic devices are visible?,12.0,2.0,,,,,0.5882352941176471,0.2857142857142857,0.6666666666666666,10.0,2.0,8.0,0.21797884,0.19503315999999998,0.9212760864035131,0.2249985373471005,-0.6398217357882261,0.16931518496165793,-0.7201898059969305,1.5894766782350547,-1.2876134312428473
Encode-Decode_Experiment-15-1,2412687,encoding,2.720342,0.647059,0.313882,0.122476,17,11,False,0.14633,0.40504,30,2,35,32,0.9143,0.15471,1.0,3573.0,4.0,4.0,What is the dog biting onto in the scene?,1.0,4651.0,3.0,3.0,What is the human's body position?,13.0,2.0,,,,,0.6,1.0,0.5555555555555556,9.0,4.0,5.0,1.3880728181818183,1.3322691818181818,1.1189687657421192,0.2673871939639434,0.958029986489258,1.156590002122009,0.16979276406486202,-0.5154779143382867,0.057417042154479195
Encode-Decode_Experiment-15-1,2409918,encoding,2.357866,0.521739,0.277652,0.10352,23,12,False,0.12614,0.121713,23,9,39,32,0.8205,0.14756,0.0,6143.0,4.0,2.0,What is the elephant on the right (from your perspective) doing with its trunk?,1.0,5553.0,4.0,4.0,Where are the elephants in the scene?,14.0,1.0,,,,,0.6875,0.5,0.8,11.0,3.0,8.0,2.2086372,0.14922879999999994,1.374986653984867,0.13678792892649555,0.707011319508699,0.12955079984145387,0.881778820114296,-0.7529305385235583,1.000661020424398
Encode-Decode_Experiment-15-1,2344622,encoding,1.846181,0.388889,0.193167,0.106015,18,7,False,0.164272,0.119036,15,16,35,31,0.8857,0.154646,1.0,5472.0,2.0,2.0,Where is the cat located?,1.0,3186.0,4.0,4.0,What is the cat resting its head on?,15.0,2.0,,,,,0.7142857142857143,0.8,0.6,10.0,4.0,6.0,0.5613143333333334,1.2848666666666668,1.098197097356931,0.224707736831677,0.35266375825237484,1.115438201984399,0.16979276406486202,-0.30446379927478256,-0.892947096962747
Encode-Decode_Experiment-15-1,150472,encoding,1.306447,0.423077,0.290346,0.101597,26,11,False,0.069874,0.099435,27,12,39,39,1.0,0.07897,1.0,4101.0,2.0,2.0,Where is the pizza slice located?,1.0,2987.0,4.0,4.0,How many women are in the scene?,16.0,2.0,,,,,0.5,0.25,0.7,8.0,1.0,7.0,1.1604478260869566,0.1459991739130433,1.5066087866121007,0.18270380898651734,-0.021108047892266755,0.1267470471961598,0.881778820114296,-1.4146694861416118,-0.20423933466933228
Encode-Decode_Experiment-15-1,2385851,encoding,-1.46333,0.05,0.19455,0.098782,20,1,False,0.317342,0.201548,3,28,37,31,0.8378,0.242951,1.0,5086.0,3.0,3.0,Where are the men?,1.0,2998.0,2.0,2.0,What are the men doing with the suitcases?,21.0,2.0,,,,,0.6875,0.5714285714285714,0.7777777777777778,11.0,4.0,7.0,-0.2892036363636364,-1.1741263636363637,0.8973895359022799,0.18298126367784998,-1.9392094680508758,-1.019300627787858,0.525785792089579,1.495777566948078,-1.870622915098347
Encode-Decode_Experiment-15-1,2383555,encoding,1.462279,0.1,0.0349,0.04452,20,2,False,0.168497,0.179873,10,35,49,45,0.9184,0.184244,1.0,3426.0,2.0,2.0,Who is holding the child in the boat?,1.0,5662.0,4.0,4.0,What is the woman at the back doing in the boat?,22.0,2.0,,,,,0.5238095238095238,0.3,0.7272727272727273,11.0,3.0,8.0,0.18494877272727273,1.2773302272727274,0.9762266413569836,0.2505405411716091,0.08680734764540891,1.1088955523655486,2.6617439602378807,-0.25477398564512554,-1.3255817037479458
Encode-Decode_Experiment-15-1,2397102,encoding,2.239179,0.6,0.33215,0.11962,20,12,False,0.108911,0.125918,31,4,35,35,1.0,0.110855,1.0,2329.0,1.0,1.0,What are the couple doing with the cake?,1.0,3435.0,3.0,3.0,What is the man holding besides the cake knife?,23.0,2.0,,,,,0.7619047619047619,1.0,0.5789473684210527,16.0,5.0,11.0,2.26796708,-0.028788079999999994,1.2376148443473476,0.23108201096190967,0.6248192501636344,-0.024991950547747905,0.16979276406486202,-0.9555591300088505,1.068861095009011
Encode-Decode_Experiment-15-1,2348899,encoding,2.156522,0.5,0.255389,0.113428,18,9,False,0.190768,0.093918,20,14,34,34,1.0,0.150888,1.0,4196.0,1.0,1.0,Where is the woman located relative to the man? (from your perspective),1.0,2770.0,4.0,4.0,What is the woman doing?,25.0,2.0,,,,,0.6521739130434783,0.6666666666666666,0.6470588235294118,15.0,4.0,11.0,3.1914342799999997,-1.03491228,1.3974960096575266,0.13863135122977524,0.5675783570931632,-0.8984439574649311,-0.008203749947496489,0.00715307692199602,2.130392517564454
Encode-Decode_Experiment-15-1,2360001,encoding,0.797404,0.217391,0.152087,0.081896,23,5,False,0.413988,0.240979,12,21,33,33,1.0,0.303891,0.0,3772.0,1.0,4.0,What are the workers doing to the clock?,0.0,4063.0,1.0,4.0,Where are the men standing?,26.0,0.0,,,,,0.65,0.5714285714285714,0.8181818181818182,13.0,4.0,9.0,1.39867536,-0.6012713599999999,1.2351857496936403,0.20068632240389478,-0.3736259947240148,-0.5219849359490848,-0.18620026395985498,2.632421762936675,0.06960473143998706
Encode-Decode_Experiment-15-1,2370664,encoding,1.268825,0.238095,0.139095,0.078025,21,5,False,0.199412,0.103866,10,31,41,41,1.0,0.12717,1.0,2589.0,1.0,1.0,Where are the people located in the scene?,1.0,2830.0,4.0,4.0,How many donuts are in the scene?,27.0,2.0,,,,,0.65,0.7142857142857143,0.5714285714285714,13.0,5.0,8.0,1.0331027083333333,0.2357222916666668,1.4230378648389013,0.23109694308114348,-0.047161701897338947,0.204638859428456,1.237771848139013,0.10881431929235225,-0.35062335784253673
Encode-Decode_Experiment-15-1,2350974,encoding,1.187243,0.409091,0.278227,0.110225,22,9,False,0.187802,0.212155,21,20,45,41,0.9111,0.192998,1.0,4588.0,4.0,4.0,Between which two objects is the child standing?,1.0,2251.0,1.0,1.0,What is the child up against?,28.0,2.0,,,,,0.75,0.5,0.7,9.0,2.0,7.0,1.9028379333333334,-0.7155949333333333,1.2721781249490671,0.38083073836292586,-0.10365814549528193,-0.621233273844092,1.949757904188447,-0.027729760291154808,0.6491428175460735
Encode-Decode_Experiment-15-1,2356991,encoding,-0.764326,0.173913,0.254956,0.106033,23,4,False,0.077566,0.240647,14,28,42,42,1.0,0.186287,1.0,5553.0,2.0,2.0,What is the current action of the gloved player on the base?,1.0,12279.0,1.0,1.0,How is the player on the left (from your perspective) reaching the base?,30.0,2.0,,,,,0.5,0.5714285714285714,0.4,8.0,4.0,4.0,0.9458675599999999,-1.71019356,1.1125880103838632,0.23763702187720387,-1.455141413078743,-1.484679522864913,1.4157683621513715,-1.3242046230790507,-0.4509007159415775
Encode-Decode_Experiment-15-1,2387122,encoding,1.388081,0.555556,0.360833,0.140282,18,10,False,0.127178,0.047365,25,3,31,28,0.9032,0.128996,1.0,2723.0,3.0,3.0,Where is the polar bear located in the scene?,1.0,9753.0,1.0,1.0,What is the polar bear doing next to the enclosure edge?,33.0,2.0,,,,,0.6470588235294118,0.4,0.75,11.0,2.0,9.0,0.95652488,0.4315561199999999,0.8173197834419076,0.1703801241070615,0.03542440628481243,0.3746491328917371,-0.542193291984572,-0.7407227215892188,-0.43865005878750785
Encode-Decode_Experiment-15-1,2394020,encoding,1.790214,0.652174,0.444565,0.115969,23,15,False,0.29277,0.351148,26,5,36,31,0.8611,0.309275,1.0,2942.0,2.0,2.0,What are the riders wearing on their heads?,1.0,2465.0,1.0,1.0,Where is the scene taking place?,34.0,2.0,,,,,0.35,0.2857142857142857,0.3333333333333333,7.0,2.0,4.0,1.8755769599999998,-0.08536295999999988,1.0536561159866344,0.1998541134594599,0.313905987434718,-0.07410660505769678,0.3477892780772205,1.2067886674195734,0.6178061552338879
Encode-Decode_Experiment-15-1,2345035,encoding,0.752731,0.473684,0.376526,0.129074,19,9,False,0.20552,0.219194,19,7,30,26,0.8667,0.19444,1.0,5744.0,2.0,2.0,Who runs toward the football in the scene?,0.0,3747.0,2.0,3.0,What are the people doing with the football?,39.0,1.0,,,,,0.47619047619047616,0.6,0.4666666666666667,10.0,3.0,7.0,0.46755884000000003,0.28517216,1.1972681039047701,0.2321196304141944,-0.4045625447577343,0.2475680392827328,-0.7201898059969305,0.18064991258227997,-1.0007196331291865
Encode-Decode_Experiment-15-1,2411268,encoding,3.119016,0.619048,0.248667,0.118749,21,13,False,0.169197,0.11267,24,10,39,34,0.8718,0.173714,1.0,5627.0,4.0,4.0,Where is the fruit branch relative to the child?,1.0,3900.0,2.0,2.0,What is the child holding while picking fruit?,43.0,2.0,,,,,0.8888888888888888,0.8333333333333334,0.7142857142857143,16.0,5.0,10.0,1.9221291363636366,1.1968868636363632,1.2389603981676889,0.26263048542262296,1.2341161716154658,1.0390598229284163,0.881778820114296,-0.24654135380115896,0.6713181781821239
Encode-Decode_Experiment-15-1,2367132,encoding,1.733934,0.266667,0.1365,0.07507,30,8,False,0.11272,0.088811,17,25,49,42,0.8571,0.093946,1.0,3457.0,4.0,4.0,In which hand(s) are the men holding the controllers?,1.0,2026.0,2.0,2.0,How many men are playing in the scene?,44.0,2.0,,,,,0.2727272727272727,0.4,0.2222222222222222,6.0,2.0,4.0,3.2539405,-1.5200065,1.3076392498798874,0.1544481949671963,0.27493146063110663,-1.3195714087308144,2.6617439602378807,-0.9107618518750367,2.2022438151905788
Encode-Decode_Experiment-15-1,2347400,encoding,-0.862426,0.272727,0.374,0.117428,22,6,False,0.263116,0.350251,23,15,42,38,0.9048,0.283332,1.0,2560.0,3.0,3.0,What are the men doing with the wine?,1.0,2462.0,1.0,1.0,What are the men sitting on in the scene?,48.0,2.0,,,,,0.6,0.5,0.5833333333333334,12.0,4.0,7.0,0.96349252,-1.82591852,1.0807221101664743,0.14817733206914757,-1.5230767556415412,-1.5851444540954815,1.4157683621513715,0.8580308607038706,-0.43064071227140616
Encode-Decode_Experiment-15-1,2408717,encoding,0.567745,0.368421,0.304421,0.112727,19,7,False,0.182601,0.196408,19,8,40,27,0.675,0.200389,1.0,3120.0,2.0,2.0,How many surfers are in the scene?,1.0,2779.0,3.0,3.0,What are the surfers doing with the surfboards?,53.0,2.0,,,,,0.5,0.2857142857142857,0.5555555555555556,8.0,2.0,5.0,0.50710532,0.060639680000000085,0.7595067787911068,0.17980747806102687,-0.5326674099903723,0.052643451171153474,1.0597753341266545,-0.08889821489182814,-0.9552607027292109
Encode-Decode_Experiment-16-1,2412687,encoding,3.53271,0.666667,0.292619,0.105881,21,14,False,0.210374,0.365635,25,3,29,28,0.9655,0.220226,1.0,7704.0,3.0,3.0,What is the human's body position?,1.0,5853.0,4.0,4.0,What is the dog biting onto in the scene?,1.0,2.0,,,,,0.8666666666666667,0.75,1.0,13.0,3.0,9.0,1.3880728181818183,2.1446371818181813,1.1189687657421192,0.2673871939639434,1.5206038740229504,1.8618353982225082,-0.898186320009289,0.23773733396887275,0.057417042154479195
Encode-Decode_Experiment-16-1,2410309,encoding,0.272189,0.208333,0.18325,0.092154,24,5,False,0.311754,0.239212,12,21,36,33,0.9167,0.272183,1.0,3780.0,4.0,4.0,How many laptops or electronic devices are visible?,1.0,4614.0,2.0,2.0,What is the baby touching?,2.0,2.0,,,,,0.7647058823529411,0.8571428571428571,0.5833333333333334,13.0,6.0,7.0,0.21797884,0.05421016000000001,0.9212760864035131,0.2249985373471005,-0.7373432316671347,0.047061757432433904,0.3477892780772205,1.4300576430279537,-1.2876134312428473
Encode-Decode_Experiment-16-1,2397102,encoding,3.126477,0.407407,0.154037,0.08104,27,11,False,0.146453,0.106747,16,18,34,34,1.0,0.125432,1.0,3428.0,1.0,1.0,What are the couple doing with the cake?,1.0,3456.0,3.0,3.0,What is the man holding besides the cake knife?,3.0,2.0,,,,,0.3333333333333333,0.2,0.3157894736842105,7.0,1.0,6.0,2.26796708,0.8585099199999999,1.2376148443473476,0.23108201096190967,1.2392829972103798,0.7453028289969672,-0.008203749947496489,-0.5140313233142753,1.068861095009011
Encode-Decode_Experiment-16-1,2344622,encoding,1.83324,0.421053,0.224947,0.106972,19,8,False,0.128648,0.113702,21,8,38,29,0.7632,0.108927,1.0,3963.0,4.0,4.0,What is the cat resting its head on?,1.0,5492.0,2.0,2.0,Where is the cat located?,4.0,2.0,,,,,0.8571428571428571,0.8,0.8,12.0,4.0,8.0,0.5613143333333334,1.2719256666666667,1.098197097356931,0.224707736831677,0.3437019716254107,1.1042036621318485,0.7037823061019375,-0.7234341947168885,-0.892947096962747
Encode-Decode_Experiment-16-1,2409918,encoding,2.10284,0.578947,0.323684,0.12139,19,11,False,0.116346,0.156417,16,12,39,28,0.7179,0.124069,1.0,5532.0,4.0,4.0,Where are the elephants in the scene?,1.0,5500.0,2.0,2.0,What is the elephant on the right (from your perspective) doing with its trunk?,5.0,2.0,,,,,1.0,0.8333333333333334,1.0,16.0,5.0,10.0,2.2086372,-0.10579720000000004,1.374986653984867,0.13678792892649555,0.5304029742240897,-0.0918462916071581,0.881778820114296,-0.8681168189232884,1.000661020424398
