SubjectID,StimID,Phase,svg_z_enc,svg_obs,svg_null_mean,svg_null_std,n_transitions,n_relational,low_n_enc,mean_salience_relational_enc,mean_salience_nonrelational,n_relational_fixations,n_nonrelational_fixations,n_fixations_enc,n_aoi,aoi_prop_enc,mean_salience_enc,enc_q1_accuracy,enc_q1_rt_ms,enc_q1_response,enc_q1_correct_key,enc_q1_question,enc_q2_accuracy,enc_q2_rt_ms,enc_q2_response,enc_q2_correct_key,enc_q2_question,enc_trial_index,enc_total_correct,dec_free_response,dec_rt_ms,dec_trial_index,dec_cue_question,prop_total,prop_relations,prop_objects,n_total_recalled,n_relations_recalled,n_objects_recalled,svg_z_enc_image_mean,svg_z_enc_within,svg_z_enc_within_sd,prop_total_image_sd,svg_z_enc_z,svg_z_enc_within_z,n_fixations_enc_z,aoi_prop_enc_z,mean_salience_relational_enc_z,enc_total_correct_z,svg_z_enc_image_mean_z,svg_z_enc_within_sd_z,prop_total_image_sd_z
Encode-Decode_Experiment-1-1,2387122,encoding,-0.330065,0.347826,0.387522,0.120266,23,8,False,0.316857,0.346243,16,13,33,29,0.8788,0.308556,1.0,7463.0,1.0,1.0,What is the polar bear doing next to the enclosure edge?,1.0,5668.0,3.0,3.0,Where is the polar bear located in the scene?,2.0,2.0,,,,,0.6470588235294118,0.4,0.6666666666666666,11.0,2.0,8.0,0.8150019000000001,-1.1450669,0.825792062281955,0.17566609422651397,-1.1488956252194396,-1.0028725667330625,-0.19835785088797186,-0.35658024309777203,1.4803781920038064,0.5312177747800755,-0.5814124997853075,-1.6460203951190162,-0.8222559165141377
Encode-Decode_Experiment-1-1,2374670,encoding,-0.476733,0.3,0.35995,0.125752,20,6,False,0.196744,0.192463,22,14,39,36,0.9231,0.212175,0.0,6044.0,4.0,1.0,What vehicle sprays water in the scene?,1.0,9310.0,3.0,3.0,Where is the man standing relative to the vehicle?,3.0,1.0,,,,,0.21052631578947367,0.14285714285714285,0.2727272727272727,4.0,1.0,3.0,1.3032671,-1.7800001,0.9337964761268012,0.1782325992587543,-1.2508411351940543,-1.5589598031976193,0.9307055453915788,0.14090508102954175,0.07076126088896036,-1.6586224047090135,-0.023209886288293236,-1.1065639987578777,-0.7768914800411921
Encode-Decode_Experiment-1-1,2356991,encoding,2.017518,0.321429,0.158786,0.080615,28,9,False,0.148569,0.176891,13,20,37,33,0.8919,0.161358,1.0,10953.0,1.0,1.0,How is the player on the left (from your perspective) reaching the base?,1.0,6687.0,2.0,2.0,What is the current action of the gloved player on the base?,4.0,2.0,,,,,0.7333333333333333,0.5714285714285714,0.5,11.0,4.0,5.0,1.01086845,1.00664955,1.0552007294474195,0.2451637476420499,0.48285462802418494,0.8816438742654968,0.5543510799650619,-0.209468330093984,-0.4946088127621657,0.5312177747800755,-0.3574907046079252,-0.5001785866455677,0.4061546432874283
Encode-Decode_Experiment-1-1,2412687,encoding,2.830765,0.666667,0.3048,0.127834,15,10,False,0.144164,0.08408,17,9,29,26,0.8966,0.127853,1.0,9147.0,3.0,3.0,What is the human's body position?,1.0,5930.0,4.0,4.0,What is the dog biting onto in the scene?,5.0,2.0,,,,,0.4666666666666667,0.5,0.4444444444444444,7.0,2.0,4.0,1.4746690588235294,1.3560959411764706,1.192851862316968,0.2971542589208023,1.048123672057822,1.187696035283122,-0.9510667817410057,-0.15668772008499215,-0.546304820534521,0.5312177747800755,0.17274309453811368,0.18735613021802738,1.325116506394377
Encode-Decode_Experiment-1-1,2360001,encoding,-0.770094,0.041667,0.092708,0.06628,24,1,False,0.315042,0.283575,2,35,38,37,0.9737,0.279301,1.0,11249.0,4.0,4.0,What are the workers doing to the clock?,1.0,4944.0,4.0,4.0,Where are the men standing?,6.0,2.0,,,,,0.6,0.75,0.5454545454545454,9.0,3.0,6.0,1.2426290500000001,-2.01272305,1.3054770986525426,0.25555809813126223,-1.4547495320608754,-1.762783232382578,0.7425283126783204,0.7091388824029518,1.4590777937956734,0.5312177747800755,-0.09253352022198863,0.749892437485898,0.5898807013009589
Encode-Decode_Experiment-1-1,2397102,encoding,3.190341,0.571429,0.227286,0.10787,21,12,False,0.137035,0.164877,24,11,35,35,1.0,0.145785,1.0,4439.0,1.0,1.0,What are the couple doing with the cake?,1.0,4350.0,3.0,3.0,What is the man holding besides the cake knife?,7.0,2.0,,,,,0.5714285714285714,0.6,0.47368421052631576,12.0,3.0,9.0,2.25847315,0.9318678500000002,1.0573058402760378,0.24075374604155786,1.298056572858488,0.8161485609142319,0.17799661453854504,1.0044857001128467,-0.629969029253958,0.5312177747800755,1.0688165647841152,-0.48966405801548213,0.32820535624610186
Encode-Decode_Experiment-1-1,150472,encoding,1.668758,0.35,0.19075,0.09543,20,7,False,0.0896,0.086865,13,17,30,30,1.0,0.08805,1.0,3118.0,4.0,4.0,How many women are in the scene?,1.0,3643.0,2.0,2.0,Where is the pizza slice located?,8.0,2.0,,,,,0.5,0.5,0.5,8.0,2.0,5.0,1.0591323333333333,0.6096256666666666,1.579211384976617,0.14201945691978565,0.2404396768504687,0.5339223909767669,-0.7628895490277472,1.0044857001128467,-1.186654643029592,0.5312177747800755,-0.30231367004928444,2.117130186426468,-1.4169793717403079
Encode-Decode_Experiment-1-1,2379478,encoding,3.182431,0.866667,0.396667,0.147686,15,13,False,0.395444,,34,0,35,34,0.9714,0.406243,1.0,4689.0,4.0,4.0,What is the position of the babies?,1.0,2082.0,2.0,2.0,How many babies are visible in the scene?,9.0,2.0,,,,,0.6923076923076923,0.8,0.5,9.0,4.0,5.0,2.212073105263158,0.9703578947368419,1.1250667777695535,0.31280320403119166,1.292558516132418,0.8498589143956807,0.17799661453854504,0.6833100732496152,2.402656095024482,0.5312177747800755,1.0157703385970276,-0.151214268298405,1.6017205135601793
Encode-Decode_Experiment-1-1,2369373,encoding,1.123483,0.6,0.46848,0.117064,25,15,False,0.238755,0.215394,30,10,40,40,1.0,0.232915,1.0,6485.0,3.0,3.0,What tool is the chef using?,1.0,4938.0,3.0,3.0,What is the appearance of the oven?,10.0,2.0,,,,,0.0,0.0,0.0,0.0,0.0,0.0,1.1686786315789472,-0.04519563157894724,1.2495395212083447,0.31539994321972625,-0.13856827274595335,-0.03958324098504697,1.1188827781048372,1.0044857001128467,0.5637921309285546,0.5312177747800755,-0.17707634004988027,0.4704975231950034,1.6476193559451706
Encode-Decode_Experiment-1-1,2347025,encoding,0.098753,0.473684,0.460684,0.131642,19,9,False,0.098077,0.100803,26,11,39,37,0.9487,0.101181,1.0,4866.0,1.0,1.0,Where is the baby in relation to the mother?,1.0,5607.0,2.0,2.0,Who is holding the umbrella in the scene?,11.0,2.0,,,,,0.4,0.5,0.3333333333333333,6.0,2.0,4.0,0.92496255,-0.8262095500000001,1.2144194132619168,0.17901615465016277,-0.8508342233029046,-0.7236109017454514,0.9307055453915788,0.4283909568232034,-1.087170634428853,0.5312177747800755,-0.45570146772357045,0.29508092494550314,-0.7630416927506697
Encode-Decode_Experiment-1-1,2349475,encoding,1.168152,0.291667,0.184917,0.091384,24,7,False,0.089086,0.054041,15,21,37,36,0.973,0.070533,1.0,4998.0,3.0,3.0,Which part of the blender is the woman holding?,0.0,14841.0,2.0,1.0,What is the man doing to power the blender?,12.0,1.0,,,,,0.6,0.5,0.7,12.0,5.0,7.0,1.378247,-0.21009499999999992,1.1896970950704437,0.1493651281941934,-0.10751989146949174,-0.18400541654621463,0.5543510799650619,0.7012779404867184,-1.1926868219160822,-1.6586224047090135,0.06250987448872872,0.1715988170714286,-1.2871404531748023
Encode-Decode_Experiment-1-1,2394020,encoding,1.776663,0.615385,0.351692,0.14842,13,8,False,0.183927,0.232903,24,3,33,27,0.8182,0.211957,1.0,11365.0,1.0,1.0,Where is the scene taking place?,1.0,3777.0,2.0,2.0,What are the riders wearing on their heads?,13.0,2.0,,,,,0.5,0.3333333333333333,0.4444444444444444,6.0,1.0,4.0,1.74860505,0.028057949999999998,1.1056992909485632,0.24103062094663025,0.3154419285605269,0.02457371559143655,-0.19835785088797186,-1.0371132147030815,-0.07965593130588094,0.5312177747800755,0.48591672682974746,-0.24795026523675456,0.33309927770128217
Encode-Decode_Experiment-1-1,2362704,encoding,-0.792589,0.045455,0.099455,0.068131,22,1,False,0.209003,0.157402,2,24,28,26,0.9286,0.175742,1.0,4644.0,4.0,4.0,What are the bears doing with the pumpkins?,1.0,3040.0,2.0,2.0,How many bears are in the scene?,16.0,2.0,,,,,0.6666666666666666,0.2,0.7142857142857143,6.0,1.0,5.0,0.15879429999999997,-0.9513832999999999,1.019587219638888,0.19094360793367365,-1.4703852825100459,-0.8332405836008108,-1.1392440144542642,0.20266962465708577,0.21462990090741701,0.5312177747800755,-1.3316130000802362,-0.6780596100144958,-0.5522171706995513
Encode-Decode_Experiment-1-1,2385550,encoding,2.217431,0.391304,0.199174,0.086646,23,9,False,0.279624,0.292266,19,13,34,32,0.9412,0.305476,1.0,6081.0,3.0,3.0,Which side of the frame is the boy on? (from your perspective),1.0,4534.0,4.0,4.0,Where are the tangerines in the scene?,17.0,2.0,,,,,0.6666666666666666,1.0,0.5833333333333334,10.0,3.0,7.0,1.8002137,0.4172172999999999,1.3029096129785058,0.202325659555628,0.6218094970859787,0.36540728278534473,-0.010180618174713418,0.34416657914927945,1.0434207669440785,0.5312177747800755,0.5449176208296734,0.7370684563158839,-0.3510329332834189
Encode-Decode_Experiment-1-1,2410309,encoding,2.29324,0.36,0.16272,0.086027,25,9,False,0.292115,0.298995,17,17,36,34,0.9444,0.285861,1.0,3857.0,2.0,2.0,What is the baby touching?,1.0,3350.0,4.0,4.0,How many laptops or electronic devices are visible?,20.0,2.0,,,,,0.5333333333333333,0.2857142857142857,0.6666666666666666,8.0,2.0,6.0,0.26341785,2.0298221499999998,0.9870399870885236,0.23644541177307293,0.6745025669148818,1.7777589672552085,0.36617384725180346,0.380102313623487,1.1900121024910684,0.5312177747800755,-1.2120035357085475,-0.8406253067125049,0.2520530971343037
Encode-Decode_Experiment-1-1,2356125,encoding,1.7459,0.32,0.18104,0.079592,25,8,False,0.342058,0.22663,18,15,34,33,0.9706,0.284523,1.0,3847.0,2.0,2.0,How many uniformed staff are moving the luggage?,1.0,5075.0,1.0,1.0,Where is the luggage being moved to?,22.0,2.0,,,,,0.7,0.5714285714285714,0.6923076923076923,14.0,4.0,9.0,0.8337153157894737,0.9121846842105263,0.9580767642456105,0.30545718778128544,0.29405928392537073,0.7989096493740223,-0.010180618174713418,0.6743261396310631,1.7761309937906669,0.5312177747800755,-0.560018639233418,-0.9852897261156577,1.4718754973564891
Encode-Decode_Experiment-1-1,2348899,encoding,4.591028,0.75,0.2456,0.109866,20,15,False,0.217957,0.119061,28,4,32,32,1.0,0.205595,1.0,5228.0,4.0,4.0,What is the woman doing?,1.0,9034.0,1.0,1.0,Where is the woman located relative to the man? (from your perspective),23.0,2.0,,,,,0.6086956521739131,0.6666666666666666,0.5882352941176471,14.0,4.0,10.0,3.20425995,1.3867680499999997,1.366065830023324,0.15276120734338297,2.2716414756990058,1.2145592836251784,-0.3865350836012303,1.0044857001128467,0.319711865400872,0.5312177747800755,2.150074585161111,1.0525187610019757,-1.2271128222583634
Encode-Decode_Experiment-1-1,2350974,encoding,4.20909,0.736842,0.259579,0.113389,19,14,False,0.272914,0.241189,26,5,38,31,0.8158,0.278012,1.0,5186.0,4.0,4.0,Between which two objects is the child standing?,1.0,8762.0,1.0,1.0,What is the child up against?,24.0,2.0,,,,,0.5833333333333334,0.5,0.5,7.0,2.0,5.0,1.986942692307692,2.2221473076923077,1.3508148030930802,0.33040060879114963,2.0061652696507584,1.9462011993573032,0.7425283126783204,-1.064065015558738,0.9646738402352243,0.5312177747800755,0.758393026248322,0.9763435035683784,1.9127646534678202
Encode-Decode_Experiment-1-1,2383555,encoding,-0.030115,0.2,0.2028,0.092978,25,5,False,0.211438,0.14111,10,23,34,33,0.9706,0.165578,0.0,7759.0,3.0,2.0,Who is holding the child in the boat?,1.0,4709.0,4.0,4.0,What is the woman at the back doing in the boat?,26.0,1.0,,,,,0.6111111111111112,0.6666666666666666,0.6363636363636364,11.0,4.0,7.0,0.15933964705882353,-0.18945464705882353,0.9639929068800858,0.2824364248101681,-0.940407367952103,-0.16592818129262912,-0.010180618174713418,0.6743261396310631,0.24320646820042144,-1.6586224047090135,-1.33098953940047,-0.955739998726393,1.0649704158377549
Encode-Decode_Experiment-1-1,2409918,encoding,2.408731,0.473684,0.224211,0.103571,19,9,False,0.169894,0.098334,25,10,35,35,1.0,0.149448,1.0,9968.0,4.0,4.0,Where are the elephants in the scene?,1.0,6438.0,2.0,2.0,What is the elephant on the right (from your perspective) doing with its trunk?,27.0,2.0,,,,,0.625,0.6666666666666666,0.6,10.0,4.0,6.0,2.30062295,0.10810804999999979,1.4285516728277252,0.14088973618811945,0.7547776704990189,0.0946831993728978,0.17799661453854504,1.0044857001128467,-0.24434380351234203,0.5312177747800755,1.117003755921998,1.3646207055694886,-1.4369478283457116
Encode-Decode_Experiment-1-1,2347400,encoding,0.212464,0.222222,0.199444,0.107208,18,4,False,0.198821,0.245429,9,18,30,27,0.9,0.241136,1.0,3779.0,3.0,3.0,What are the men doing with the wine?,1.0,2865.0,1.0,1.0,What are the men sitting on in the scene?,31.0,2.0,,,,,0.5,0.375,0.5,10.0,3.0,6.0,1.0643553000000001,-0.8518913000000001,1.0149145404103375,0.16036325722872383,-0.771796356251309,-0.7461034936985477,-0.7628895490277472,-0.11850600220614564,0.09513642732328077,0.5312177747800755,-0.2963425837553172,-0.701398533010796,-1.0927422658964787
Encode-Decode_Experiment-1-1,2408717,encoding,1.46445,0.363636,0.219955,0.098113,22,8,False,0.193703,0.220917,21,11,37,32,0.8649,0.207272,1.0,2675.0,2.0,2.0,How many surfers are in the scene?,1.0,4633.0,3.0,3.0,What are the surfers doing with the surfboards?,32.0,2.0,,,,,0.5333333333333333,0.4,0.5555555555555556,8.0,2.0,5.0,0.5491520000000001,0.915298,0.7767648109453384,0.15964141103410187,0.09842994567602317,0.801636353810977,0.5543510799650619,-0.5126760897201122,0.03507282510332292,0.5312177747800755,-0.8853418172503243,-1.8908998716887142,-1.1055013080287985
Encode-Decode_Experiment-1-1,2386442,encoding,2.947547,0.769231,0.331385,0.148546,13,10,False,0.136657,0.144387,33,3,37,36,0.973,0.134292,1.0,6336.0,3.0,3.0,What is the person on the right wearing?,1.0,6401.0,1.0,1.0,Who is brushing their teeth in the scene?,33.0,2.0,,,,,0.4117647058823529,0.3333333333333333,0.38461538461538464,7.0,2.0,5.0,2.905053333333333,0.042493666666667096,1.488627680160608,0.28835178777162634,1.1292961196664038,0.03721680590007413,0.5543510799650619,0.7012779404867184,-0.6344051452444119,0.5312177747800755,1.8080106506457438,1.664686094287014,1.1695278213010298
Encode-Decode_Experiment-1-1,2385851,encoding,0.29707,0.12,0.1012,0.063285,25,3,False,0.16401,0.12087,6,22,31,28,0.9032,0.15682,1.0,6572.0,3.0,3.0,Where are the men?,1.0,3877.0,2.0,2.0,What are the men doing with the suitcases?,35.0,2.0,,,,,0.3125,0.14285714285714285,0.4444444444444444,5.0,1.0,4.0,-0.24730138888888892,0.5443713888888889,0.9812015899517188,0.19110772079566124,-0.7129886966601764,0.4767713851749991,-0.5747123163144887,-0.0825702677319381,-0.3133969952790929,0.5312177747800755,-1.7958764267337193,-0.8697867138052781,-0.5493163825037337
Encode-Decode_Experiment-1-1,2344622,encoding,0.018231,0.333333,0.330417,0.159986,12,4,False,0.169364,0.246224,9,10,24,19,0.7917,0.254556,1.0,3713.0,4.0,4.0,What is the cat resting its head on?,1.0,8759.0,2.0,2.0,Where is the cat located?,37.0,2.0,,,,,0.42857142857142855,0.4,0.4444444444444444,6.0,2.0,4.0,0.4115323,-0.3933013,0.8878657860599796,0.2320633177791066,-0.9068031896362283,-0.34446117011193866,-1.8919529453072979,-1.3347060158176154,-0.25056375450424856,0.5312177747800755,-1.0426736856871393,-1.3359768872109572,0.17459709291434095
Encode-Decode_Experiment-1-1,2411268,encoding,2.743085,0.6,0.2838,0.115272,20,12,False,0.159698,0.437671,23,8,32,31,0.9688,0.234453,0.0,9988.0,1.0,4.0,Where is the fruit branch relative to the child?,1.0,7151.0,2.0,2.0,What is the child holding while picking fruit?,38.0,1.0,,,,,0.5,0.3333333333333333,0.6,8.0,2.0,6.0,1.812951111111111,0.9301338888888893,1.2541907966656,0.28745648292422177,0.9871793466795924,0.8146299229812735,-0.3865350836012303,0.654112288989321,-0.36400157768871716,-1.6586224047090135,0.5594794945233301,0.4937295394370298,1.1537027988039759
Encode-Decode_Experiment-1-1,2345035,encoding,-0.53349,0.25,0.305964,0.104902,28,7,False,0.234224,0.247613,15,21,41,36,0.878,0.23046,1.0,6065.0,3.0,3.0,What are the people doing with the football?,1.0,5287.0,2.0,2.0,Who runs toward the football in the scene?,42.0,2.0,,,,,0.38095238095238093,0.2,0.4666666666666667,8.0,1.0,7.0,0.3609163,-0.8944063,1.1310923374930932,0.23102851811236144,-1.29029160366454,-0.783338983760007,1.3070600108180956,-0.36556417671632424,0.510617417826048,0.5312177747800755,-1.1005397459444848,-0.12111802853556453,0.1563064201299166
Encode-Decode_Experiment-1-1,2370664,encoding,4.605735,0.555556,0.141389,0.089924,18,10,False,0.144682,0.152652,28,12,40,40,1.0,0.147073,1.0,3329.0,1.0,1.0,Where are the people located in the scene?,1.0,3201.0,4.0,4.0,How many donuts are in the scene?,45.0,2.0,,,,,0.8235294117647058,0.5714285714285714,0.75,14.0,4.0,9.0,0.911983,3.693752,1.4103172679001217,0.24727618331718346,2.2818639687799553,3.2350621165587645,1.1188827781048372,1.0044857001128467,-0.5402256986216764,0.5312177747800755,-0.4705401634406013,1.2735441835843255,0.4434931455634709
Encode-Decode_Experiment-1-1,2367132,encoding,2.469503,0.380952,0.154952,0.091516,21,8,False,0.120313,0.081787,21,15,37,36,0.973,0.103802,1.0,4443.0,4.0,4.0,In which hand(s) are the men holding the controllers?,1.0,3240.0,2.0,2.0,How many men are playing in the scene?,46.0,2.0,,,,,0.6470588235294118,0.6,0.6153846153846154,11.0,3.0,8.0,3.1424511578947367,-0.6729481578947367,1.2882139288199363,0.16200481987213924,0.7970188719347601,-0.589381499357095,0.5543510799650619,0.7012779404867184,-0.826214350926903,0.5312177747800755,2.0794125160842007,0.6636670041341992,-1.0637267123253349
Encode-Decode_Experiment-10-1,2362704,encoding,1.880256,0.333333,0.182967,0.079971,30,10,False,0.248115,0.1542,17,17,35,34,0.9714,0.199018,1.0,4528.0,4.0,4.0,What are the bears doing with the pumpkins?,1.0,2438.0,2.0,2.0,How many bears are in the scene?,1.0,2.0,,,,,0.3333333333333333,0.2,0.2857142857142857,3.0,1.0,2.0,0.15879429999999997,1.7214616999999999,1.019587219638888,0.19094360793367365,0.38744700952433797,1.5076906979073985,0.17799661453854504,0.6833100732496152,0.6736388125969416,0.5312177747800755,-1.3316130000802362,-0.6780596100144958,-0.5522171706995513
Encode-Decode_Experiment-10-1,150472,encoding,-0.859561,0.15,0.24775,0.113721,20,3,False,0.087219,0.075484,5,23,31,28,0.9032,0.092926,1.0,3338.0,2.0,2.0,Where is the pizza slice located?,1.0,2893.0,4.0,4.0,How many women are in the scene?,2.0,2.0,,,,,0.5625,0.75,0.6,9.0,3.0,6.0,1.0591323333333333,-1.9186933333333334,1.579211384976617,0.14201945691978565,-1.5169359595085725,-1.6804301198241043,-0.5747123163144887,-0.0825702677319381,-1.214597479466817,0.5312177747800755,-0.30231367004928444,2.117130186426468,-1.4169793717403079
Encode-Decode_Experiment-10-1,2370664,encoding,-0.010006,0.214286,0.2155,0.121359,14,3,False,0.069476,0.126217,6,16,26,22,0.8462,0.122232,1.0,3833.0,1.0,1.0,Where are the people located in the scene?,0.0,2566.0,3.0,4.0,How many donuts are in the scene?,4.0,1.0,,,,,0.29411764705882354,0.14285714285714285,0.25,5.0,1.0,3.0,0.911983,-0.921989,1.4103172679001217,0.24727618331718346,-0.9264300705179012,-0.8074964658655748,-1.515598479880781,-0.7226755380537644,-1.4228250086166236,-1.6586224047090135,-0.4705401634406013,1.2735441835843255,0.4434931455634709
Encode-Decode_Experiment-10-1,2379478,encoding,0.921081,0.35,0.2475,0.111282,20,7,False,0.319026,0.389875,18,12,31,30,0.9677,0.355879,1.0,2007.0,2.0,2.0,How many babies are visible in the scene?,1.0,5045.0,4.0,4.0,What is the position of the babies?,5.0,2.0,,,,,0.0,0.0,0.0,0.0,0.0,0.0,2.212073105263158,-1.2909921052631579,1.1250667777695535,0.31280320403119166,-0.2792531877231942,-1.1306767894848617,-0.5747123163144887,0.6417593802638122,1.5058330480442688,0.5312177747800755,1.0157703385970276,-0.151214268298405,1.6017205135601793
Encode-Decode_Experiment-10-1,2412687,encoding,0.594297,0.416667,0.326083,0.152421,12,5,False,0.123179,0.199847,12,4,28,16,0.5714,0.119551,1.0,3895.0,3.0,3.0,What is the human's body position?,1.0,3399.0,4.0,4.0,What is the dog biting onto in the scene?,6.0,2.0,,,,,0.0,0.0,0.0,0.0,0.0,0.0,1.4746690588235294,-0.8803720588235294,1.192851862316968,0.2971542589208023,-0.5063931332569473,-0.7710475137412702,-1.1392440144542642,-3.8086567360263555,-0.7925796725442538,0.5312177747800755,0.17274309453811368,0.18735613021802738,1.325116506394377
Encode-Decode_Experiment-10-1,2347025,encoding,0.508345,0.52381,0.460143,0.125243,21,11,False,0.125089,0.154398,28,6,34,34,1.0,0.130261,1.0,3994.0,1.0,1.0,Where is the baby in relation to the mother?,0.0,4496.0,3.0,2.0,Who is holding the umbrella in the scene?,7.0,1.0,,,,,0.5333333333333333,0.5,0.5,8.0,2.0,6.0,0.92496255,-0.41661755,1.2144194132619168,0.17901615465016277,-0.5661363660912266,-0.3648820097013895,-0.010180618174713418,1.0044857001128467,-0.7701643774602132,-1.6586224047090135,-0.45570146772357045,0.29508092494550314,-0.7630416927506697
Encode-Decode_Experiment-10-1,2356125,encoding,2.47984,0.5,0.243727,0.103342,22,11,False,0.235264,0.258587,25,10,37,35,0.9459,0.249079,1.0,2514.0,1.0,1.0,Where is the luggage being moved to?,1.0,3297.0,2.0,2.0,How many uniformed staff are moving the luggage?,8.0,2.0,,,,,0.45,0.42857142857142855,0.46153846153846156,9.0,3.0,6.0,0.8337153157894737,1.6461246842105262,0.9580767642456105,0.30545718778128544,0.8042038798206491,1.441709027845327,0.5543510799650619,0.3969471891582713,0.5228226046780912,0.5312177747800755,-0.560018639233418,-0.9852897261156577,1.4718754973564891
Encode-Decode_Experiment-10-1,2350974,encoding,2.945957,0.8,0.3145,0.164802,10,8,False,0.256598,,19,0,25,19,0.76,0.238674,1.0,2261.0,1.0,1.0,What is the child up against?,1.0,4270.0,4.0,4.0,Between which two objects is the child standing?,9.0,2.0,,,,,0.0,0.0,0.0,0.0,0.0,0.0,1.986942692307692,0.9590143076923079,1.3508148030930802,0.33040060879114963,1.1281909477075605,0.8399239732535416,-1.7037757125940394,-1.6906943854527354,0.7731932357372114,0.5312177747800755,0.758393026248322,0.9763435035683784,1.9127646534678202
Encode-Decode_Experiment-10-1,2383555,encoding,0.816161,0.285714,0.199952,0.10508,21,6,False,0.302928,0.158923,10,16,32,26,0.8125,0.204814,1.0,3491.0,2.0,2.0,Who is holding the child in the boat?,1.0,4016.0,4.0,4.0,What is the woman at the back doing in the boat?,10.0,2.0,,,,,0.3888888888888889,0.3333333333333333,0.45454545454545453,7.0,2.0,5.0,0.15933964705882353,0.6568213529411765,0.9639929068800858,0.2824364248101681,-0.3521806354727822,0.5752573199951903,-0.3865350836012303,-1.1011237417352644,1.3169108384825494,0.5312177747800755,-1.33098953940047,-0.955739998726393,1.0649704158377549
Encode-Decode_Experiment-10-1,2369373,encoding,2.615965,0.777778,0.427389,0.133942,18,14,False,0.261421,0.402052,24,1,26,25,0.9615,0.261874,1.0,4815.0,3.0,3.0,What is the appearance of the oven?,1.0,4239.0,3.0,3.0,What tool is the chef using?,11.0,2.0,,,,,0.4666666666666667,0.3333333333333333,0.5,7.0,1.0,6.0,1.1686786315789472,1.4472863684210528,1.2495395212083447,0.31539994321972625,0.8988211961084178,1.2675624411955266,-1.515598479880781,0.5721338947200348,0.829794789763561,0.5312177747800755,-0.17707634004988027,0.4704975231950034,1.6476193559451706
Encode-Decode_Experiment-10-1,2385550,encoding,0.843475,0.388889,0.287722,0.11994,18,7,False,0.276524,0.262302,14,14,32,28,0.875,0.277336,1.0,4548.0,3.0,3.0,Which side of the frame is the boy on? (from your perspective),1.0,3141.0,4.0,4.0,Where are the tangerines in the scene?,13.0,2.0,,,,,1.0,1.0,1.0,15.0,3.0,12.0,1.8002137,-0.9567387,1.3029096129785058,0.202325659555628,-0.3331953103886015,-0.837930950376658,-0.3865350836012303,-0.399253927785894,1.0070399215197197,0.5312177747800755,0.5449176208296734,0.7370684563158839,-0.3510329332834189
Encode-Decode_Experiment-10-1,2348899,encoding,4.18893,0.608696,0.217739,0.093331,23,14,False,0.201666,0.175792,22,6,28,28,1.0,0.196122,1.0,6102.0,1.0,1.0,Where is the woman located relative to the man? (from your perspective),1.0,3203.0,4.0,4.0,What is the woman doing?,14.0,2.0,,,,,0.5652173913043478,0.5,0.5882352941176471,13.0,3.0,10.0,3.20425995,0.9846700500000001,1.366065830023324,0.15276120734338297,1.992152523304669,0.8623937871478715,-1.1392440144542642,1.0044857001128467,0.12852465481757164,0.5312177747800755,2.150074585161111,1.0525187610019757,-1.2271128222583634
Encode-Decode_Experiment-10-1,2411268,encoding,0.473765,0.461538,0.388769,0.153598,13,6,False,0.243625,0.288897,16,9,26,25,0.9615,0.264995,1.0,6114.0,4.0,4.0,Where is the fruit branch relative to the child?,0.0,23799.0,1.0,2.0,What is the child holding while picking fruit?,15.0,1.0,,,,,0.625,0.6666666666666666,0.5,10.0,4.0,5.0,1.812951111111111,-1.339186111111111,1.2541907966656,0.28745648292422177,-0.5901721185043104,-1.1728860668169416,-1.515598479880781,0.5721338947200348,0.6209452655145637,-1.6586224047090135,0.5594794945233301,0.4937295394370298,1.1537027988039759
Encode-Decode_Experiment-10-1,2387122,encoding,-0.136416,0.421053,0.439421,0.13465,19,8,False,0.179375,0.28172,13,11,24,24,1.0,0.226283,1.0,4071.0,3.0,3.0,Where is the polar bear located in the scene?,1.0,3613.0,1.0,1.0,What is the polar bear doing next to the enclosure edge?,17.0,2.0,,,,,0.4117647058823529,0.4,0.4166666666666667,7.0,2.0,5.0,0.8150019000000001,-0.9514179,0.825792062281955,0.17566609422651397,-1.0142947166294665,-0.8332708869750582,-1.8919529453072979,1.0044857001128467,-0.13307709529674605,0.5312177747800755,-0.5814124997853075,-1.6460203951190162,-0.8222559165141377
Encode-Decode_Experiment-10-1,2349475,encoding,0.821209,0.153846,0.084154,0.084866,13,2,False,0.065656,0.09436,3,20,25,23,0.92,0.088054,1.0,2724.0,3.0,3.0,Which part of the blender is the woman holding?,1.0,3992.0,1.0,1.0,What is the man doing to power the blender?,18.0,2.0,,,,,0.75,0.6,0.9,15.0,6.0,9.0,1.378247,-0.557038,1.1896970950704437,0.1493651281941934,-0.3486718882726305,-0.48786505734106167,-1.7037757125940394,0.10609233825765307,-1.4676555987847044,0.5312177747800755,0.06250987448872872,0.1715988170714286,-1.2871404531748023
Encode-Decode_Experiment-10-1,2410309,encoding,0.661148,0.263158,0.192158,0.107389,19,5,False,0.287865,0.226602,11,15,26,26,1.0,0.252521,1.0,5188.0,2.0,2.0,What is the baby touching?,1.0,3019.0,4.0,4.0,How many laptops or electronic devices are visible?,20.0,2.0,,,,,0.8666666666666667,0.7142857142857143,0.8888888888888888,13.0,5.0,8.0,0.26341785,0.39773014999999995,0.9870399870885236,0.23644541177307293,-0.45992656053956543,0.3483400458066039,-1.515598479880781,1.0044857001128467,1.1401351369899306,0.5312177747800755,-1.2120035357085475,-0.8406253067125049,0.2520530971343037
Encode-Decode_Experiment-10-1,2344622,encoding,-0.988013,0.25,0.386562,0.138219,16,4,False,0.153564,0.260008,8,17,31,25,0.8065,0.256139,1.0,3365.0,4.0,4.0,What is the cat resting its head on?,1.0,4642.0,2.0,2.0,Where is the cat located?,22.0,2.0,,,,,0.6428571428571429,0.6,0.6666666666666666,9.0,3.0,6.0,0.4115323,-1.3995453,0.8878657860599796,0.2320633177791066,-1.6062199522490421,-1.225749855550094,-0.5747123163144887,-1.168503243874404,-0.4359887086025938,0.5312177747800755,-1.0426736856871393,-1.3359768872109572,0.17459709291434095
Encode-Decode_Experiment-10-1,2397102,encoding,1.887584,0.5,0.27925,0.116948,20,10,False,0.116305,0.084022,27,5,34,32,0.9412,0.105677,1.0,2309.0,1.0,1.0,What are the couple doing with the cake?,1.0,3756.0,3.0,3.0,What is the man holding besides the cake knife?,23.0,2.0,,,,,0.0,0.0,0.0,0.0,0.0,0.0,2.25847315,-0.37088915,1.0573058402760378,0.24075374604155786,0.3925405316088688,-0.3248321594432114,-0.010180618174713418,0.34416657914927945,-0.8732512633336225,0.5312177747800755,1.0688165647841152,-0.48966405801548213,0.32820535624610186
Encode-Decode_Experiment-10-1,2409918,encoding,-0.195526,0.352941,0.379176,0.134178,17,6,False,0.170519,0.124303,16,10,35,26,0.7429,0.131688,1.0,5345.0,4.0,4.0,Where are the elephants in the scene?,1.0,3997.0,2.0,2.0,What is the elephant on the right (from your perspective) doing with its trunk?,24.0,2.0,,,,,0.6875,0.6666666666666666,0.6,11.0,4.0,6.0,2.30062295,-2.4961489500000003,1.4285516728277252,0.14088973618811945,-1.0553807005836997,-2.1861773355203433,0.17799661453854504,-1.8827259665492833,-0.23700895564452754,0.5312177747800755,1.117003755921998,1.3646207055694886,-1.4369478283457116
Encode-Decode_Experiment-10-1,2374670,encoding,0.029488,0.714286,0.709929,0.14776,14,10,False,0.17199,0.258162,17,7,28,24,0.8571,0.215653,1.0,4770.0,1.0,1.0,What vehicle sprays water in the scene?,1.0,5684.0,3.0,3.0,Where is the man standing relative to the vehicle?,25.0,2.0,,,,,0.3684210526315789,0.42857142857142855,0.36363636363636365,7.0,3.0,4.0,1.3032671,-1.2737791,0.9337964761268012,0.1782325992587543,-0.8989787111829581,-1.1156012940972535,-1.1392440144542642,-0.600269442500994,-0.21974565770283983,0.5312177747800755,-0.023209886288293236,-1.1065639987578777,-0.7768914800411921
Encode-Decode_Experiment-10-1,2360001,encoding,2.026076,0.285714,0.104571,0.089406,14,4,False,0.261531,0.219258,9,14,23,23,1.0,0.235799,1.0,4442.0,4.0,4.0,Where are the men standing?,1.0,3459.0,4.0,4.0,What are the workers doing to the clock?,27.0,2.0,,,,,0.0,0.0,0.0,0.0,0.0,0.0,1.2426290500000001,0.7834469500000001,1.3054770986525426,0.25555809813126223,0.48880309445423636,0.6861585586359098,-2.0801301780205566,1.0044857001128467,0.8310857229882963,0.5312177747800755,-0.09253352022198863,0.749892437485898,0.5898807013009589
Encode-Decode_Experiment-10-1,2347400,encoding,0.444285,0.4,0.3264,0.165659,10,4,False,0.138936,0.267598,21,11,37,32,0.8649,0.188872,1.0,2603.0,1.0,1.0,What are the men sitting on in the scene?,1.0,4788.0,3.0,3.0,What are the men doing with the wine?,29.0,2.0,,,,,0.45,0.375,0.5,9.0,3.0,6.0,1.0643553000000001,-0.6200703000000001,1.0149145404103375,0.16036325722872383,-0.6106629797286514,-0.543070010421173,0.5543510799650619,-0.5126760897201122,-0.6076593559792138,0.5312177747800755,-0.2963425837553172,-0.701398533010796,-1.0927422658964787
Encode-Decode_Experiment-10-1,2408717,encoding,-0.059029,0.222222,0.228778,0.111057,18,4,False,0.157241,0.270898,12,12,28,24,0.8571,0.215179,1.0,3635.0,2.0,2.0,How many surfers are in the scene?,1.0,2977.0,3.0,3.0,What are the surfers doing with the surfboards?,30.0,2.0,,,,,0.8666666666666667,0.6,1.0,13.0,3.0,9.0,0.5491520000000001,-0.6081810000000001,0.7767648109453384,0.15964141103410187,-0.960504815762164,-0.5326571229229321,-1.1392440144542642,-0.600269442500994,-0.39283633162666887,0.5312177747800755,-0.8853418172503243,-1.8908998716887142,-1.1055013080287985
Encode-Decode_Experiment-10-1,2394020,encoding,1.732468,0.8,0.4745,0.187882,10,8,False,0.252803,,15,0,19,15,0.7895,0.247894,1.0,3488.0,1.0,1.0,Where is the scene taking place?,1.0,3246.0,2.0,2.0,What are the riders wearing on their heads?,33.0,2.0,,,,,0.0,0.0,0.0,0.0,0.0,0.0,1.74860505,-0.016137050000000208,1.1056992909485632,0.24103062094663025,0.2847230136416071,-0.01413315217914341,-2.83283910887359,-1.359411833268633,0.728656039483843,0.5312177747800755,0.48591672682974746,-0.24795026523675456,0.33309927770128217
Encode-Decode_Experiment-10-1,2356991,encoding,2.220155,0.5,0.238,0.11801,16,8,False,0.128548,0.042288,20,10,31,30,0.9677,0.102377,1.0,5505.0,2.0,2.0,What is the current action of the gloved player on the base?,1.0,6324.0,1.0,1.0,How is the player on the left (from your perspective) reaching the base?,36.0,2.0,,,,,0.3333333333333333,0.2857142857142857,0.3,5.0,2.0,3.0,1.01086845,1.20928655,1.0552007294474195,0.2451637476420499,0.6237028860267896,1.0591174247672952,-0.5747123163144887,0.6417593802638122,-0.7295703954205819,0.5312177747800755,-0.3574907046079252,-0.5001785866455677,0.4061546432874283
Encode-Decode_Experiment-10-1,2386442,encoding,-0.711952,0.545455,0.667818,0.171871,11,6,False,0.129535,0.134756,13,7,20,20,1.0,0.131362,1.0,4429.0,3.0,3.0,What is the person on the right wearing?,1.0,4695.0,1.0,1.0,Who is brushing their teeth in the scene?,37.0,2.0,,,,,0.23529411764705882,0.16666666666666666,0.23076923076923078,4.0,1.0,3.0,2.905053333333333,-3.617005333333333,1.488627680160608,0.28835178777162634,-1.4143363823557995,-3.1678458459738694,-2.6446618761603315,1.0044857001128467,-0.7179872036677294,0.5312177747800755,1.8080106506457438,1.664686094287014,1.1695278213010298
Encode-Decode_Experiment-10-1,2345035,encoding,-0.090433,0.277778,0.289611,0.130852,18,5,False,0.17469,0.20841,12,14,40,26,0.65,0.167931,0.0,3175.0,2.0,3.0,What are the people doing with the football?,1.0,6623.0,2.0,2.0,Who runs toward the football in the scene?,41.0,1.0,,,,,0.5238095238095238,0.4,0.6,11.0,2.0,9.0,0.3609163,-0.4513493,1.1310923374930932,0.23102851811236144,-0.9823330045643758,-0.39530077324230667,1.1188827781048372,-2.925985258003627,-0.18805911491388197,-1.6586224047090135,-1.1005397459444848,-0.12111802853556453,0.1563064201299166
Encode-Decode_Experiment-10-1,2371471,encoding,1.413843,0.4,0.1956,0.144571,10,4,False,0.148076,0.373248,31,14,45,45,1.0,0.218129,1.0,7062.0,2.0,2.0,What stunt is one motorcyclist performing?,1.0,4367.0,3.0,3.0,What is nearest to the motorcyclists?,42.0,2.0,,,,,0.4,0.6,0.3333333333333333,8.0,3.0,5.0,1.7406732941176468,-0.32683029411764686,1.348804788869518,0.20083567242962952,0.06325419893313902,-0.28624452942259204,2.0597689416711296,1.0044857001128467,-0.5003945407602974,0.5312177747800755,0.4768488537494011,0.9663039598953286,-0.3773693033562503
Encode-Decode_Experiment-10-1,2385851,encoding,-0.674388,0.133333,0.215067,0.121196,15,2,False,0.367904,0.224178,6,13,30,19,0.6333,0.33537,1.0,5412.0,3.0,3.0,Where are the men?,1.0,2633.0,2.0,2.0,What are the men doing with the suitcases?,46.0,2.0,,,,,0.4375,0.2857142857142857,0.5555555555555556,7.0,2.0,5.0,-0.24730138888888892,-0.42708661111111107,0.9812015899517188,0.19110772079566124,-1.3882265210589495,-0.37405102348371544,-0.7628895490277472,-3.1135248722908995,2.079453358577113,0.5312177747800755,-1.7958764267337193,-0.8697867138052781,-0.5493163825037337
Encode-Decode_Experiment-10-1,2367132,encoding,2.837132,0.5,0.165167,0.118018,12,6,False,0.105676,0.034278,11,11,22,22,1.0,0.069977,1.0,2315.0,2.0,2.0,How many men are playing in the scene?,0.0,7330.0,1.0,4.0,In which hand(s) are the men holding the controllers?,55.0,1.0,,,,,0.6470588235294118,0.6,0.6153846153846154,11.0,3.0,8.0,3.1424511578947367,-0.30531915789473674,1.2882139288199363,0.16200481987213924,1.0525492254301212,-0.26740464469863884,-2.2683074107338146,1.0044857001128467,-0.9979906201128195,-1.6586224047090135,2.0794125160842007,0.6636670041341992,-1.0637267123253349
Encode-Decode_Experiment-11-1,2370664,encoding,0.697606,0.153846,0.108385,0.065168,26,4,False,0.15941,0.163214,9,25,34,34,1.0,0.162207,1.0,2788.0,4.0,4.0,How many donuts are in the scene?,1.0,3789.0,1.0,1.0,Where are the people located in the scene?,1.0,2.0,,,,,0.4117647058823529,0.2857142857142857,0.3333333333333333,7.0,2.0,4.0,0.911983,-0.21437700000000004,1.4103172679001217,0.24727618331718346,-0.43458545407697985,-0.18775567806434174,-0.010180618174713418,1.0044857001128467,-0.3673814755862061,0.5312177747800755,-0.4705401634406013,1.2735441835843255,0.4434931455634709
Encode-Decode_Experiment-11-1,2356125,encoding,1.642844,0.4,0.24756,0.09279,25,10,False,0.290167,0.261904,18,12,37,30,0.8108,0.29884,0.0,2916.0,4.0,2.0,How many uniformed staff are moving the luggage?,1.0,3095.0,1.0,1.0,Where is the luggage being moved to?,2.0,1.0,,,,,0.45,0.42857142857142855,0.46153846153846156,9.0,3.0,6.0,0.8337153157894737,0.8091286842105263,0.9580767642456105,0.30545718778128544,0.222427459151433,0.708651136760268,0.5543510799650619,-1.1202146006746876,1.1671508486566646,-1.6586224047090135,-0.560018639233418,-0.9852897261156577,1.4718754973564891
Encode-Decode_Experiment-11-1,2344622,encoding,-0.812151,0.16,0.23684,0.094613,25,4,False,0.21429,0.20509,8,22,36,30,0.8333,0.229643,1.0,3551.0,4.0,4.0,What is the cat resting its head on?,1.0,4489.0,2.0,2.0,Where is the cat located?,3.0,2.0,,,,,0.5,0.4,0.5555555555555556,7.0,2.0,5.0,0.4115323,-1.2236833,0.8878657860599796,0.2320633177791066,-1.4839823729873376,-1.0717263872874014,0.36617384725180346,-0.8675414676529135,0.27667684599083187,0.5312177747800755,-1.0426736856871393,-1.3359768872109572,0.17459709291434095
Encode-Decode_Experiment-11-1,2360001,encoding,1.051911,0.214286,0.137321,0.073166,28,6,False,0.150861,0.28008,13,22,35,35,1.0,0.232084,1.0,3527.0,4.0,4.0,What are the workers doing to the clock?,0.0,4447.0,2.0,4.0,Where are the men standing?,5.0,1.0,,,,,0.6,0.75,0.5454545454545454,9.0,3.0,6.0,1.2426290500000001,-0.19071805000000008,1.3054770986525426,0.25555809813126223,-0.1883163025813852,-0.16703469493863166,0.17799661453854504,1.0044857001128467,-0.4677104586613172,-1.6586224047090135,-0.09253352022198863,0.749892437485898,0.5898807013009589
Encode-Decode_Experiment-11-1,150472,encoding,-0.525739,0.217391,0.272826,0.105442,23,5,False,0.091957,0.093667,11,16,29,27,0.931,0.10335,1.0,4609.0,2.0,2.0,Where is the pizza slice located?,1.0,2436.0,4.0,4.0,How many women are in the scene?,6.0,2.0,,,,,0.4375,0.25,0.6,7.0,1.0,6.0,1.0591323333333333,-1.5848713333333333,1.579211384976617,0.14201945691978565,-1.2849040641343543,-1.3880621141015002,-0.9510667817410057,0.22962142551274237,-1.1589934647504905,0.5312177747800755,-0.30231367004928444,2.117130186426468,-1.4169793717403079
Encode-Decode_Experiment-11-1,2362704,encoding,0.174253,0.153846,0.141192,0.072618,26,4,False,0.206413,0.164435,7,23,30,30,1.0,0.17423,1.0,3273.0,4.0,4.0,What are the bears doing with the pumpkins?,1.0,2147.0,2.0,2.0,How many bears are in the scene?,7.0,2.0,,,,,0.5555555555555556,0.2,0.5714285714285714,5.0,1.0,4.0,0.15879429999999997,0.01545870000000002,1.019587219638888,0.19094360793367365,-0.7983559321754371,0.013539039638082633,-0.7628895490277472,1.0044857001128467,0.1842342913431948,0.5312177747800755,-1.3316130000802362,-0.6780596100144958,-0.5522171706995513
Encode-Decode_Experiment-11-1,2367132,encoding,3.730474,0.35,0.0866,0.070608,20,7,False,0.089679,0.110717,19,14,34,33,0.9706,0.098292,1.0,5518.0,4.0,4.0,In which hand(s) are the men holding the controllers?,1.0,2338.0,2.0,2.0,How many men are playing in the scene?,8.0,2.0,,,,,0.7058823529411765,0.6,0.6923076923076923,12.0,3.0,9.0,3.1424511578947367,0.5880228421052633,1.2882139288199363,0.16200481987213924,1.6734904380446127,0.5150022037662392,-0.010180618174713418,0.6743261396310631,-1.1857275182591,0.5312177747800755,2.0794125160842007,0.6636670041341992,-1.0637267123253349
Encode-Decode_Experiment-11-1,2386442,encoding,3.655787,0.703704,0.312148,0.107106,27,19,False,0.113722,0.105171,33,4,37,37,1.0,0.112798,0.0,3200.0,4.0,3.0,What is the person on the right wearing?,1.0,4148.0,1.0,1.0,Who is brushing their teeth in the scene?,9.0,1.0,,,,,0.47058823529411764,0.16666666666666666,0.5384615384615384,8.0,1.0,7.0,2.905053333333333,0.7507336666666671,1.488627680160608,0.28835178777162634,1.621577244277233,0.6575076087020975,0.5543510799650619,1.0044857001128467,-0.9035647226017254,-1.6586224047090135,1.8080106506457438,1.664686094287014,1.1695278213010298
Encode-Decode_Experiment-11-1,2347400,encoding,1.436542,0.318182,0.179818,0.096317,22,7,False,0.235781,0.188421,14,14,38,28,0.7368,0.237335,1.0,3737.0,3.0,3.0,What are the men doing with the wine?,1.0,2667.0,1.0,1.0,What are the men sitting on in the scene?,11.0,2.0,,,,,0.4,0.125,0.5833333333333334,8.0,1.0,7.0,1.0643553000000001,0.37218669999999987,1.0149145404103375,0.16036325722872383,0.07903174502985938,0.3259685797684906,0.7425283126783204,-1.9512284603907417,0.528889990834347,0.5312177747800755,-0.2963425837553172,-0.701398533010796,-1.0927422658964787
Encode-Decode_Experiment-11-1,2356991,encoding,0.951975,0.241379,0.166828,0.078313,29,7,False,0.12271,0.17492,14,20,37,34,0.9189,0.14964,1.0,6140.0,1.0,1.0,How is the player on the left (from your perspective) reaching the base?,1.0,6431.0,2.0,2.0,What is the current action of the gloved player on the base?,12.0,2.0,,,,,0.4,0.2857142857142857,0.4,6.0,2.0,4.0,1.01086845,-0.058893450000000014,1.0552007294474195,0.2451637476420499,-0.25777948803985673,-0.051580065204282224,0.5543510799650619,0.09373942953214427,-0.7980837423842616,0.5312177747800755,-0.3574907046079252,-0.5001785866455677,0.4061546432874283
Encode-Decode_Experiment-11-1,2371471,encoding,1.885618,0.44,0.25408,0.098599,25,11,False,0.261174,0.606556,21,10,31,31,1.0,0.372587,0.0,4957.0,1.0,3.0,What is nearest to the motorcyclists?,1.0,6247.0,2.0,2.0,What stunt is one motorcyclist performing?,14.0,1.0,,,,,0.35,0.2,0.3333333333333333,7.0,1.0,5.0,1.7406732941176468,0.1449447058823532,1.348804788869518,0.20083567242962952,0.3911740108094437,0.12694548172041684,-0.5747123163144887,1.0044857001128467,0.8268960578862008,-1.6586224047090135,0.4768488537494011,0.9663039598953286,-0.3773693033562503
Encode-Decode_Experiment-11-1,2408717,encoding,-0.470886,0.16,0.19976,0.084437,25,4,False,0.350207,0.289281,8,19,34,27,0.7941,0.298228,1.0,3767.0,3.0,3.0,What are the surfers doing with the surfboards?,1.0,2533.0,2.0,2.0,How many surfers are in the scene?,16.0,2.0,,,,,0.6666666666666666,0.2,0.8888888888888888,10.0,1.0,8.0,0.5491520000000001,-1.020038,0.7767648109453384,0.15964141103410187,-1.246777021707666,-0.8933697474141115,-0.010180618174713418,-1.3077542149619588,1.871765674230377,0.5312177747800755,-0.8853418172503243,-1.8908998716887142,-1.1055013080287985
Encode-Decode_Experiment-11-1,2410309,encoding,-0.011677,0.136364,0.137364,0.085637,22,3,False,0.308537,0.292408,7,24,34,31,0.9118,0.315882,1.0,3041.0,4.0,4.0,How many laptops or electronic devices are visible?,1.0,3278.0,2.0,2.0,What is the baby touching?,17.0,2.0,,,,,0.6,0.42857142857142855,0.6666666666666666,9.0,3.0,6.0,0.26341785,-0.27509485,0.9870399870885236,0.23644541177307293,-0.9275915436897422,-0.2409335893951234,-0.010180618174713418,0.014007018667495855,1.3827366971874624,0.5312177747800755,-1.2120035357085475,-0.8406253067125049,0.2520530971343037
Encode-Decode_Experiment-11-1,2349475,encoding,-0.11116,0.173913,0.184609,0.096219,23,4,False,0.062321,0.052886,7,20,35,27,0.7714,0.078727,1.0,4349.0,3.0,3.0,Which part of the blender is the woman holding?,1.0,3378.0,1.0,1.0,What is the man doing to power the blender?,19.0,2.0,,,,,0.6,0.5,0.7,12.0,5.0,7.0,1.378247,-1.489407,1.1896970950704437,0.1493651281941934,-0.9967398594014488,-1.3044525354808443,0.17799661453854504,-1.5626733313883707,-1.506794347007362,0.5312177747800755,0.06250987448872872,0.1715988170714286,-1.2871404531748023
Encode-Decode_Experiment-11-1,2385851,encoding,-1.019643,0.086957,0.172261,0.083661,23,2,False,0.158952,0.177844,5,21,32,26,0.8125,0.207879,1.0,3774.0,3.0,3.0,Where are the men?,1.0,2739.0,2.0,2.0,What are the men doing with the suitcases?,20.0,2.0,,,,,0.4375,0.2857142857142857,0.5555555555555556,7.0,2.0,5.0,-0.24730138888888892,-0.7723416111111112,0.9812015899517188,0.19110772079566124,-1.6282052283862847,-0.6764322800089225,-0.3865350836012303,-1.1011237417352644,-0.37275645210374025,0.5312177747800755,-1.7958764267337193,-0.8697867138052781,-0.5493163825037337
Encode-Decode_Experiment-11-1,2387122,encoding,1.141207,0.47619,0.339095,0.120132,21,10,False,0.139046,0.109506,20,5,28,25,0.8929,0.136233,1.0,5174.0,3.0,3.0,Where is the polar bear located in the scene?,1.0,4770.0,1.0,1.0,What is the polar bear doing next to the enclosure edge?,21.0,2.0,,,,,0.6470588235294118,0.6,0.6666666666666666,11.0,3.0,8.0,0.8150019000000001,0.3262051,0.825792062281955,0.17566609422651397,-0.12624873325001643,0.2856969718698666,-1.1392440144542642,-0.19823841307079407,-0.6063684227544786,0.5312177747800755,-0.5814124997853075,-1.6460203951190162,-0.8222559165141377
Encode-Decode_Experiment-11-1,2345035,encoding,0.405641,0.16129,0.131161,0.074275,31,5,False,0.213296,0.22694,7,27,37,34,0.9189,0.213018,1.0,3135.0,2.0,2.0,Who runs toward the football in the scene?,1.0,4557.0,3.0,3.0,What are the people doing with the football?,22.0,2.0,,,,,0.42857142857142855,0.2,0.4,9.0,1.0,6.0,0.3609163,0.04472469999999995,1.1310923374930932,0.23102851811236144,-0.6375235238654707,0.039170789658985114,0.5543510799650619,0.09373942953214427,0.26501150394186007,0.5312177747800755,-1.1005397459444848,-0.12111802853556453,0.1563064201299166
Encode-Decode_Experiment-11-1,2397102,encoding,0.749626,0.3,0.22015,0.10652,20,6,False,0.173613,0.169396,16,12,30,28,0.9333,0.165927,1.0,3272.0,1.0,1.0,What are the couple doing with the cake?,1.0,4218.0,3.0,3.0,What is the man holding besides the cake knife?,23.0,2.0,,,,,0.47619047619047616,0.4,0.3684210526315789,10.0,2.0,7.0,2.25847315,-1.5088471499999998,1.0573058402760378,0.24075374604155786,-0.3984275639518028,-1.3214786089165322,-0.7628895490277472,0.25545023466607886,-0.20069852475969982,0.5312177747800755,1.0688165647841152,-0.48966405801548213,0.32820535624610186
Encode-Decode_Experiment-11-1,2394020,encoding,1.411591,0.75,0.541625,0.147617,16,12,False,0.284873,,20,0,25,20,0.8,0.280133,1.0,4892.0,2.0,2.0,What are the riders wearing on their heads?,1.0,2807.0,1.0,1.0,Where is the scene taking place?,27.0,2.0,,,,,0.5,0.3333333333333333,0.4444444444444444,6.0,1.0,4.0,1.74860505,-0.33701405000000006,1.1056992909485632,0.24103062094663025,0.061688886196462824,-0.29516366716093595,-1.7037757125940394,-1.2414977045251379,1.1050217532771303,0.5312177747800755,0.48591672682974746,-0.24795026523675456,0.33309927770128217
Encode-Decode_Experiment-11-1,2374670,encoding,1.722857,0.44,0.25392,0.108007,25,11,False,0.236601,0.256587,19,14,35,33,0.9429,0.242823,1.0,4330.0,1.0,1.0,What vehicle sprays water in the scene?,0.0,6666.0,4.0,3.0,Where is the man standing relative to the vehicle?,29.0,1.0,,,,,0.3684210526315789,0.42857142857142855,0.36363636363636365,7.0,3.0,4.0,1.3032671,0.41958990000000007,0.9337964761268012,0.1782325992587543,0.27804263144258623,0.36748525347145145,0.17799661453854504,0.3632574380887015,0.5385133112369195,-1.6586224047090135,-0.023209886288293236,-1.1065639987578777,-0.7768914800411921
Encode-Decode_Experiment-11-1,2385550,encoding,1.638093,0.285714,0.159679,0.076941,28,8,False,0.232533,0.234815,16,16,34,32,0.9412,0.232809,1.0,3325.0,4.0,4.0,Where are the tangerines in the scene?,1.0,5641.0,3.0,3.0,Which side of the frame is the boy on? (from your perspective),30.0,2.0,,,,,0.4,0.0,0.5,6.0,0.0,6.0,1.8002137,-0.1621207,1.3029096129785058,0.202325659555628,0.2191251497322728,-0.1419885620041596,-0.010180618174713418,0.34416657914927945,0.4907722534348896,0.5312177747800755,0.5449176208296734,0.7370684563158839,-0.3510329332834189
Encode-Decode_Experiment-11-1,2412687,encoding,0.152419,0.357143,0.334429,0.149025,14,5,False,0.098331,0.218764,12,12,29,24,0.8276,0.141215,1.0,3151.0,4.0,4.0,What is the dog biting onto in the scene?,1.0,5574.0,3.0,3.0,What is the human's body position?,34.0,2.0,,,,,0.4666666666666667,0.5,0.5555555555555556,7.0,2.0,5.0,1.4746690588235294,-1.3222500588235293,1.192851862316968,0.2971542589208023,-0.8135322369234784,-1.1580531324023913,-0.9510667817410057,-0.9315519946850965,-1.0841897522553732,0.5312177747800755,0.17274309453811368,0.18735613021802738,1.325116506394377
Encode-Decode_Experiment-11-1,2409918,encoding,0.354383,0.36,0.32392,0.101811,25,9,False,0.147662,0.187722,21,12,35,33,0.9429,0.172968,1.0,3977.0,4.0,4.0,Where are the elephants in the scene?,1.0,4189.0,2.0,2.0,What is the elephant on the right (from your perspective) doing with its trunk?,35.0,2.0,,,,,0.6875,0.6666666666666666,0.7,11.0,4.0,7.0,2.30062295,-1.9462399500000003,1.4285516728277252,0.14088973618811945,-0.6731517655424473,-1.7045559994223285,0.17799661453854504,0.3632574380887015,-0.505253143987938,0.5312177747800755,1.117003755921998,1.3646207055694886,-1.4369478283457116
Encode-Decode_Experiment-11-1,2347025,encoding,0.686526,0.75,0.6718,0.113907,20,15,False,0.137319,0.055183,30,1,32,31,0.9688,0.13769,1.0,4062.0,1.0,1.0,Where is the baby in relation to the mother?,0.0,4582.0,3.0,2.0,Who is holding the umbrella in the scene?,43.0,1.0,,,,,0.6,0.5,0.5833333333333334,9.0,2.0,7.0,0.92496255,-0.23843655000000008,1.2144194132619168,0.17901615465016277,-0.4422869039536996,-0.2088275147080719,-0.3865350836012303,0.654112288989321,-0.6266360743828231,-1.6586224047090135,-0.45570146772357045,0.29508092494550314,-0.7630416927506697
Encode-Decode_Experiment-11-1,2348899,encoding,3.835123,0.52,0.19808,0.08394,25,13,False,0.194244,0.172049,21,11,32,32,1.0,0.186614,1.0,3377.0,4.0,4.0,What is the woman doing?,1.0,9406.0,1.0,1.0,Where is the woman located relative to the man? (from your perspective),46.0,2.0,,,,,0.6086956521739131,0.5,0.6470588235294118,14.0,3.0,11.0,3.20425995,0.6308630499999999,1.366065830023324,0.15276120734338297,1.7462295200075049,0.5525225174271898,-0.3865350836012303,1.0044857001128467,0.04142186941770314,0.5312177747800755,2.150074585161111,1.0525187610019757,-1.2271128222583634
Encode-Decode_Experiment-11-1,2379478,encoding,-0.019075,0.285714,0.288429,0.142295,14,4,False,0.4593,0.376932,10,7,18,17,0.9444,0.444714,1.0,2193.0,2.0,2.0,How many babies are visible in the scene?,1.0,5005.0,4.0,4.0,What is the position of the babies?,47.0,2.0,,,,,0.6923076923076923,0.8,0.5,9.0,4.0,5.0,2.212073105263158,-2.231148105263158,1.1250667777695535,0.31280320403119166,-0.9327337211435304,-1.9540842784704302,-3.0210163415868485,0.380102313623487,3.1520545677399214,0.5312177747800755,1.0157703385970276,-0.151214268298405,1.6017205135601793
Encode-Decode_Experiment-12-1,2348899,encoding,1.566717,0.75,0.496167,0.162016,12,9,False,0.211917,,26,0,26,26,1.0,0.211917,1.0,4705.0,4.0,4.0,What is the woman doing?,1.0,6461.0,1.0,1.0,Where is the woman located relative to the man? (from your perspective),1.0,2.0,,,,,0.43478260869565216,0.16666666666666666,0.5294117647058824,10.0,1.0,9.0,3.20425995,-1.63754295,1.366065830023324,0.15276120734338297,0.16951335493076117,-1.4341929728316583,-1.515598479880781,1.0044857001128467,0.2488278956063144,0.5312177747800755,2.150074585161111,1.0525187610019757,-1.2271128222583634
Encode-Decode_Experiment-12-1,2362704,encoding,0.488559,0.166667,0.130375,0.074283,24,4,False,0.241483,0.322712,9,20,30,29,0.9667,0.298547,1.0,4769.0,4.0,4.0,What are the bears doing with the pumpkins?,1.0,1435.0,2.0,2.0,How many bears are in the scene?,3.0,2.0,,,,,0.5555555555555556,0.2,0.5714285714285714,5.0,1.0,4.0,0.15879429999999997,0.3297647,1.019587219638888,0.19094360793367365,-0.5798891537501415,0.28881454097307185,-0.7628895490277472,0.6305294632406222,0.5958072749019906,0.5312177747800755,-1.3316130000802362,-0.6780596100144958,-0.5522171706995513
Encode-Decode_Experiment-12-1,2412687,encoding,1.598289,0.6,0.370667,0.143487,15,9,False,0.115768,0.140906,17,7,31,24,0.7742,0.118383,1.0,4546.0,4.0,4.0,What is the dog biting onto in the scene?,1.0,3800.0,3.0,3.0,What is the human's body position?,4.0,2.0,,,,,0.06666666666666667,0.0,0.1111111111111111,1.0,0.0,1.0,1.4746690588235294,0.12361994117647068,1.192851862316968,0.2971542589208023,0.19145831661919047,0.10826882491061207,-0.5747123163144887,-1.5312295637234385,-0.8795533646216486,0.5312177747800755,0.17274309453811368,0.18735613021802738,1.325116506394377
Encode-Decode_Experiment-12-1,2379478,encoding,2.782982,0.722222,0.341778,0.136704,18,13,False,0.388866,0.249042,29,4,33,33,1.0,0.371917,1.0,2555.0,2.0,2.0,How many babies are visible in the scene?,1.0,4318.0,4.0,4.0,What is the position of the babies?,5.0,2.0,,,,,0.5384615384615384,0.4,0.5,7.0,2.0,5.0,2.212073105263158,0.5709088947368421,1.1250667777695535,0.31280320403119166,1.0149108219261165,0.5000134652704333,-0.19835785088797186,1.0044857001128467,2.3254582881853096,0.5312177747800755,1.0157703385970276,-0.151214268298405,1.6017205135601793
Encode-Decode_Experiment-12-1,2374670,encoding,0.249412,0.318182,0.289955,0.113175,22,7,False,0.15559,0.127896,18,14,33,32,0.9697,0.139603,0.0,5477.0,4.0,1.0,What vehicle sprays water in the scene?,1.0,3700.0,3.0,3.0,Where is the man standing relative to the vehicle?,6.0,1.0,,,,,0.3684210526315789,0.2857142857142857,0.45454545454545453,7.0,2.0,5.0,1.3032671,-1.0538551,0.9337964761268012,0.1782325992587543,-0.7461146622039228,-0.9229874421326199,-0.19835785088797186,0.664219214310192,-0.412212065754287,-1.6586224047090135,-0.023209886288293236,-1.1065639987578777,-0.7768914800411921
Encode-Decode_Experiment-12-1,2347400,encoding,1.382448,0.263158,0.141895,0.087716,19,5,False,0.173668,0.287058,14,13,30,27,0.9,0.223652,1.0,7922.0,3.0,3.0,What are the men doing with the wine?,1.0,2618.0,1.0,1.0,What are the men sitting on in the scene?,7.0,2.0,,,,,0.5,0.375,0.5833333333333334,10.0,3.0,7.0,1.0643553000000001,0.3180926999999998,1.0149145404103375,0.16036325722872383,0.04143226582126025,0.278591969174945,-0.7628895490277472,-0.11850600220614564,-0.20005305814733218,0.5312177747800755,-0.2963425837553172,-0.701398533010796,-1.0927422658964787
Encode-Decode_Experiment-12-1,2408717,encoding,0.357366,0.217391,0.185,0.090639,23,5,False,0.307717,0.204369,11,19,32,30,0.9375,0.248498,1.0,5172.0,2.0,2.0,How many surfers are in the scene?,1.0,4703.0,3.0,3.0,What are the surfers doing with the surfboards?,8.0,2.0,,,,,0.4666666666666667,0.4,0.4444444444444444,7.0,2.0,4.0,0.5491520000000001,-0.19178600000000007,0.7767648109453384,0.15964141103410187,-0.6710783517353844,-0.16797002697699775,-0.3865350836012303,0.30261588616347634,1.3731133767848902,0.5312177747800755,-0.8853418172503243,-1.8908998716887142,-1.1055013080287985
Encode-Decode_Experiment-12-1,2410309,encoding,0.27344,0.3,0.26725,0.11977,20,6,False,0.422645,0.22628,14,14,29,28,0.9655,0.320055,1.0,3377.0,4.0,4.0,How many laptops or electronic devices are visible?,1.0,4521.0,2.0,2.0,What is the baby touching?,12.0,2.0,,,,,0.5333333333333333,0.42857142857142855,0.5555555555555556,8.0,3.0,5.0,0.26341785,0.010022150000000007,0.9870399870885236,0.23644541177307293,-0.7294133591680181,0.00877760006396461,-0.9510667817410057,0.6170535628127946,2.7218804099883487,0.5312177747800755,-1.2120035357085475,-0.8406253067125049,0.2520530971343037
Encode-Decode_Experiment-12-1,2371471,encoding,3.127066,0.64,0.30496,0.107142,25,16,False,0.410398,0.467525,25,6,31,31,1.0,0.421455,1.0,14130.0,2.0,2.0,What stunt is one motorcyclist performing?,0.0,7842.0,1.0,3.0,What is nearest to the motorcyclists?,13.0,1.0,,,,,0.35,0.2,0.3333333333333333,7.0,1.0,5.0,1.7406732941176468,1.3863927058823533,1.348804788869518,0.20083567242962952,1.254075594433448,1.2142305497156818,-0.5747123163144887,1.0044857001128467,2.5781525990489538,-1.6586224047090135,0.4768488537494011,0.9663039598953286,-0.3773693033562503
Encode-Decode_Experiment-12-1,2356991,encoding,-0.476864,0.166667,0.2155,0.102405,24,4,False,0.14828,0.172787,7,23,30,30,1.0,0.167069,1.0,6140.0,1.0,1.0,How is the player on the left (from your perspective) reaching the base?,0.0,10852.0,1.0,2.0,What is the current action of the gloved player on the base?,14.0,1.0,,,,,0.4,0.2857142857142857,0.4,6.0,2.0,4.0,1.01086845,-1.48773245,1.0552007294474195,0.2451637476420499,-1.2509321902422355,-1.302985930991078,-0.7628895490277472,1.0044857001128467,-0.49800044641624314,-1.6586224047090135,-0.3574907046079252,-0.5001785866455677,0.4061546432874283
Encode-Decode_Experiment-12-1,2349475,encoding,0.903512,0.285714,0.19619,0.099084,21,6,False,0.06314,0.06219,12,15,30,27,0.9,0.073385,1.0,4695.0,1.0,1.0,What is the man doing to power the blender?,1.0,4553.0,3.0,3.0,Which part of the blender is the woman holding?,15.0,2.0,,,,,0.55,0.3,0.8,11.0,3.0,8.0,1.378247,-0.474735,1.1896970950704437,0.1493651281941934,-0.2914649903300615,-0.41578243853526853,-0.7628895490277472,-0.11850600220614564,-1.4971827623613778,0.5312177747800755,0.06250987448872872,0.1715988170714286,-1.2871404531748023
Encode-Decode_Experiment-12-1,2370664,encoding,1.792974,0.36,0.20424,0.086872,25,9,False,0.158935,0.098141,17,15,32,32,1.0,0.130438,1.0,3163.0,1.0,1.0,Where are the people located in the scene?,1.0,2855.0,4.0,4.0,How many donuts are in the scene?,16.0,2.0,,,,,0.4117647058823529,0.2857142857142857,0.3333333333333333,7.0,2.0,4.0,0.911983,0.8809910000000001,1.4103172679001217,0.24727618331718346,0.32677932467417087,0.7715895948426486,-0.3865350836012303,1.0044857001128467,-0.372955959965745,0.5312177747800755,-0.4705401634406013,1.2735441835843255,0.4434931455634709
Encode-Decode_Experiment-12-1,2394020,encoding,3.928929,0.782609,0.335478,0.113805,23,18,False,0.297217,0.201905,26,2,31,28,0.9032,0.305749,1.0,2564.0,2.0,2.0,What are the riders wearing on their heads?,1.0,6988.0,1.0,1.0,Where is the scene taking place?,17.0,2.0,,,,,0.5833333333333334,0.3333333333333333,0.6666666666666666,7.0,1.0,6.0,1.74860505,2.18032395,1.1056992909485632,0.24103062094663025,1.811431885272448,1.9095714635066907,-0.5747123163144887,-0.0825702677319381,1.2498879326056098,0.5312177747800755,0.48591672682974746,-0.24795026523675456,0.33309927770128217
Encode-Decode_Experiment-12-1,2345035,encoding,-0.513364,0.315789,0.383895,0.132665,19,6,False,0.180412,0.292083,14,13,34,27,0.7941,0.226322,1.0,3588.0,2.0,2.0,Who runs toward the football in the scene?,0.0,8018.0,2.0,3.0,What are the people doing with the football?,18.0,1.0,,,,,0.38095238095238093,0.2,0.4666666666666667,8.0,1.0,7.0,0.3609163,-0.8742803000000001,1.1310923374930932,0.23102851811236144,-1.2763024899263755,-0.7657122291327713,-0.010180618174713418,-1.3077542149619588,-0.12090711571446877,-1.6586224047090135,-1.1005397459444848,-0.12111802853556453,0.1563064201299166
Encode-Decode_Experiment-12-1,2369373,encoding,2.49022,0.647059,0.327706,0.128243,17,11,False,0.229375,0.075314,21,2,24,23,0.9583,0.21144,1.0,2801.0,3.0,3.0,What tool is the chef using?,1.0,4471.0,3.0,3.0,What is the appearance of the oven?,20.0,2.0,,,,,0.4,0.3333333333333333,0.4166666666666667,6.0,1.0,5.0,1.1686786315789472,1.3215413684210526,1.2495395212083447,0.31539994321972625,0.8114187760047964,1.1574324471280628,-1.8919529453072979,0.5361981602458272,0.45371073412839763,0.5312177747800755,-0.17707634004988027,0.4704975231950034,1.6476193559451706
Encode-Decode_Experiment-12-1,2360001,encoding,1.04886,0.333333,0.215133,0.112694,15,5,False,0.338907,0.117954,9,14,23,23,1.0,0.204414,1.0,4385.0,4.0,4.0,What are the workers doing to the clock?,1.0,5966.0,4.0,4.0,Where are the men standing?,21.0,2.0,,,,,0.5333333333333333,0.5,0.5454545454545454,8.0,2.0,6.0,1.2426290500000001,-0.19376905000000022,1.3054770986525426,0.25555809813126223,-0.19043698160429795,-0.16970682195680215,-2.0801301780205566,1.0044857001128467,1.739151624780295,0.5312177747800755,-0.09253352022198863,0.749892437485898,0.5898807013009589
Encode-Decode_Experiment-12-1,2344622,encoding,1.079607,0.277778,0.175444,0.094788,18,5,False,0.195878,0.182635,17,15,32,32,1.0,0.18967,1.0,3553.0,4.0,4.0,What is the cat resting its head on?,1.0,2338.0,2.0,2.0,Where is the cat located?,22.0,2.0,,,,,0.42857142857142855,0.4,0.4444444444444444,6.0,2.0,4.0,0.4115323,0.6680747,0.8878657860599796,0.2320633177791066,-0.1690654581964006,0.5851132271471831,-0.3865350836012303,1.0044857001128467,0.0605980956833168,0.5312177747800755,-1.0426736856871393,-1.3359768872109572,0.17459709291434095
Encode-Decode_Experiment-12-1,2385550,encoding,0.806193,0.230769,0.163308,0.083679,26,6,False,0.187256,0.225803,11,21,32,32,1.0,0.212552,1.0,4594.0,3.0,3.0,Which side of the frame is the boy on? (from your perspective),1.0,2877.0,4.0,4.0,Where are the tangerines in the scene?,23.0,2.0,,,,,0.4666666666666667,0.3333333333333333,0.5,7.0,1.0,6.0,1.8002137,-0.9940207,1.3029096129785058,0.202325659555628,-0.3591091600550153,-0.8705832740382204,-0.3865350836012303,1.0044857001128467,-0.04058759762275489,0.5312177747800755,0.5449176208296734,0.7370684563158839,-0.3510329332834189
Encode-Decode_Experiment-12-1,2409918,encoding,2.437274,0.8125,0.475812,0.138141,16,13,False,0.105191,,29,0,31,29,0.9355,0.116702,0.0,7279.0,3.0,2.0,What is the elephant on the right (from your perspective) doing with its trunk?,1.0,3754.0,4.0,4.0,Where are the elephants in the scene?,25.0,1.0,,,,,0.5625,0.3333333333333333,0.7,9.0,2.0,7.0,2.30062295,0.13665104999999977,1.4285516728277252,0.14088973618811945,0.7746172448520163,0.11968173148683962,-0.5747123163144887,0.2801560521170965,-1.0036824620582434,-1.6586224047090135,1.117003755921998,1.3646207055694886,-1.4369478283457116
Encode-Decode_Experiment-12-1,2347025,encoding,0.835642,0.722222,0.614611,0.128777,18,13,False,0.083014,0.033475,26,1,28,27,0.9643,0.080254,1.0,3188.0,1.0,1.0,Where is the baby in relation to the mother?,1.0,4422.0,2.0,2.0,Who is holding the umbrella in the scene?,26.0,2.0,,,,,0.4666666666666667,0.5,0.4166666666666667,7.0,2.0,5.0,0.92496255,-0.08932055000000005,1.2144194132619168,0.17901615465016277,-0.33863984620848825,-0.07822872990260125,-1.1392440144542642,0.6035776623849669,-1.2639463359214718,0.5312177747800755,-0.45570146772357045,0.29508092494550314,-0.7630416927506697
Encode-Decode_Experiment-12-1,2383555,encoding,0.882377,0.375,0.277958,0.109978,24,9,False,0.206303,0.170577,16,15,32,31,0.9688,0.185409,0.0,2500.0,3.0,2.0,Who is holding the child in the boat?,1.0,5224.0,4.0,4.0,What is the woman at the back doing in the boat?,27.0,1.0,,,,,0.3333333333333333,0.3333333333333333,0.36363636363636365,6.0,2.0,4.0,0.15933964705882353,0.7230373529411764,0.9639929068800858,0.2824364248101681,-0.30615543646223403,0.6332506214160909,-0.3865350836012303,0.654112288989321,0.18294335811845916,-1.6586224047090135,-1.33098953940047,-0.955739998726393,1.0649704158377549
Encode-Decode_Experiment-12-1,2387122,encoding,0.35523,0.470588,0.420118,0.142078,17,8,False,0.131836,0.071836,19,6,26,25,0.9615,0.122484,1.0,3195.0,3.0,3.0,Where is the polar bear located in the scene?,1.0,6460.0,1.0,1.0,What is the polar bear doing next to the enclosure edge?,32.0,2.0,,,,,0.47058823529411764,0.2,0.5833333333333334,8.0,1.0,7.0,0.8150019000000001,-0.45977190000000007,0.825792062281955,0.17566609422651397,-0.6725630355744345,-0.40267745532137644,-1.515598479880781,0.5721338947200348,-0.6909832277575843,0.5312177747800755,-0.5814124997853075,-1.6460203951190162,-0.8222559165141377
Encode-Decode_Experiment-12-1,2411268,encoding,3.118175,0.777778,0.384611,0.126089,18,14,False,0.151452,0.139584,24,2,28,26,0.9286,0.14773,1.0,7147.0,2.0,2.0,What is the child holding while picking fruit?,1.0,5309.0,4.0,4.0,Where is the fruit branch relative to the child?,35.0,2.0,,,,,0.6875,0.3333333333333333,0.9,11.0,2.0,9.0,1.812951111111111,1.305223888888889,1.2541907966656,0.28745648292422177,1.247895667461073,1.1431412711443407,-1.1392440144542642,0.20266962465708577,-0.4607746265175119,0.5312177747800755,0.5594794945233301,0.4937295394370298,1.1537027988039759
Encode-Decode_Experiment-12-1,2397102,encoding,1.238677,0.428571,0.28519,0.115753,21,9,False,0.085259,0.18614,19,10,31,29,0.9355,0.118279,1.0,2848.0,3.0,3.0,What is the man holding besides the cake knife?,1.0,2213.0,1.0,1.0,What are the couple doing with the cake?,46.0,2.0,,,,,0.38095238095238093,0.4,0.3157894736842105,8.0,2.0,6.0,2.25847315,-1.01979615,1.0573058402760378,0.24075374604155786,-0.05849960694280769,-0.8931579303314027,-0.5747123163144887,0.2801560521170965,-1.237599562380283,0.5312177747800755,1.0688165647841152,-0.48966405801548213,0.32820535624610186
Encode-Decode_Experiment-12-1,2385851,encoding,-1.348958,0.0,0.113294,0.083986,17,0,False,,0.143996,0,21,22,21,0.9545,0.147182,1.0,2616.0,2.0,2.0,What are the men doing with the suitcases?,0.0,5927.0,4.0,3.0,Where are the men?,48.0,1.0,,,,,0.8125,0.5714285714285714,1.0,13.0,4.0,9.0,-0.24730138888888892,-1.1016566111111112,0.9812015899517188,0.19110772079566124,-1.857104413057039,-0.9648529646987852,-2.2683074107338146,0.49352447555770523,,-1.6586224047090135,-1.7958764267337193,-0.8697867138052781,-0.5493163825037337
Encode-Decode_Experiment-12-1,150472,encoding,0.958904,0.458333,0.354917,0.107849,24,11,False,0.09993,0.108113,18,9,29,27,0.931,0.11259,1.0,1991.0,4.0,4.0,How many women are in the scene?,1.0,4824.0,2.0,2.0,Where is the pizza slice located?,49.0,2.0,,,,,0.625,0.25,0.8,10.0,1.0,8.0,1.0591323333333333,-0.10022833333333336,1.579211384976617,0.14201945691978565,-0.2529633015600922,-0.08778198541009002,-0.9510667817410057,0.22962142551274237,-1.065424277470357,0.5312177747800755,-0.30231367004928444,2.117130186426468,-1.4169793717403079
Encode-Decode_Experiment-13-1,2383555,encoding,-0.941434,0.043478,0.111478,0.07223,23,1,False,0.250284,0.2218,2,24,33,26,0.7879,0.198782,0.0,6222.0,3.0,2.0,Who is holding the child in the boat?,1.0,3642.0,4.0,4.0,What is the woman at the back doing in the boat?,1.0,1.0,,,,,0.3888888888888889,0.3333333333333333,0.45454545454545453,7.0,2.0,5.0,0.15933964705882353,-1.1007736470588236,0.9639929068800858,0.2824364248101681,-1.5738439744685613,-0.9640796470651599,-0.19835785088797186,-1.377379700505736,0.6990936686374044,-1.6586224047090135,-1.33098953940047,-0.955739998726393,1.0649704158377549
Encode-Decode_Experiment-13-1,2362704,encoding,-0.569881,0.074074,0.113481,0.06915,27,2,False,0.357824,0.25117,3,30,33,33,1.0,0.260866,1.0,4661.0,4.0,4.0,What are the bears doing with the pumpkins?,1.0,1935.0,2.0,2.0,How many bears are in the scene?,2.0,2.0,,,,,0.4444444444444444,0.2,0.42857142857142855,4.0,1.0,3.0,0.15879429999999997,-0.7286752999999999,1.019587219638888,0.19094360793367365,-1.3155861399879791,-0.638188448575349,-0.19835785088797186,1.0044857001128467,1.9611569321650033,0.5312177747800755,-1.3316130000802362,-0.6780596100144958,-0.5522171706995513
Encode-Decode_Experiment-13-1,2408717,encoding,0.977161,0.291667,0.207042,0.086603,24,7,False,0.27242,0.165683,15,13,38,28,0.7368,0.225013,1.0,5354.0,3.0,3.0,What are the surfers doing with the surfboards?,1.0,3379.0,2.0,2.0,How many surfers are in the scene?,3.0,2.0,,,,,0.4,0.2,0.4444444444444444,6.0,1.0,4.0,0.5491520000000001,0.42800899999999986,0.7767648109453384,0.15964141103410187,-0.24027328618109653,0.3748588701802936,0.7425283126783204,-1.9512284603907417,0.958876376480504,0.5312177747800755,-0.8853418172503243,-1.8908998716887142,-1.1055013080287985
Encode-Decode_Experiment-13-1,2356991,encoding,1.402613,0.307692,0.182385,0.089339,26,8,False,0.119732,0.180797,14,16,33,30,0.9091,0.156088,1.0,11044.0,2.0,2.0,What is the current action of the gloved player on the base?,1.0,8942.0,1.0,1.0,How is the player on the left (from your perspective) reaching the base?,4.0,2.0,,,,,0.6666666666666666,0.8571428571428571,0.4,10.0,6.0,4.0,1.01086845,0.3917445500000001,1.0552007294474195,0.2451637476420499,0.05544848755086812,0.34309773722582376,-0.19835785088797186,-0.016313757295117345,-0.833032825504823,0.5312177747800755,-0.3574907046079252,-0.5001785866455677,0.4061546432874283
Encode-Decode_Experiment-13-1,2349475,encoding,1.996356,0.458333,0.248625,0.105046,24,11,False,0.100344,0.047474,20,8,35,28,0.8,0.095884,1.0,7850.0,3.0,3.0,Which part of the blender is the woman holding?,1.0,3279.0,1.0,1.0,What is the man doing to power the blender?,5.0,2.0,,,,,0.55,0.3,0.7,11.0,3.0,7.0,1.378247,0.618109,1.1896970950704437,0.1493651281941934,0.4681454148210133,0.5413522645277814,0.17799661453854504,-1.2414977045251379,-1.060565674242717,0.5312177747800755,0.06250987448872872,0.1715988170714286,-1.2871404531748023
Encode-Decode_Experiment-13-1,2385851,encoding,-0.567677,0.090909,0.136545,0.080391,22,2,False,0.103798,0.287702,5,23,30,28,0.9333,0.256344,1.0,4739.0,2.0,2.0,What are the men doing with the suitcases?,0.0,5823.0,4.0,3.0,Where are the men?,7.0,1.0,,,,,0.4375,0.42857142857142855,0.4444444444444444,7.0,3.0,4.0,-0.24730138888888892,-0.32037561111111107,0.9812015899517188,0.19110772079566124,-1.3140541909330794,-0.2805913885325595,-0.7628895490277472,0.25545023466607886,-1.020030370986028,-1.6586224047090135,-1.7958764267337193,-0.8697867138052781,-0.5493163825037337
Encode-Decode_Experiment-13-1,2345035,encoding,0.447078,0.428571,0.371048,0.128666,21,9,False,0.15256,0.144497,16,10,35,26,0.7429,0.163761,0.0,6182.0,2.0,3.0,What are the people doing with the football?,1.0,5894.0,2.0,2.0,Who runs toward the football in the scene?,8.0,1.0,,,,,0.42857142857142855,0.6,0.3333333333333333,9.0,3.0,5.0,0.3609163,0.08616169999999995,1.1310923374930932,0.23102851811236144,-0.6087216304952869,0.07546214569042564,0.17799661453854504,-1.8827259665492833,-0.4477714082174507,-1.6586224047090135,-1.1005397459444848,-0.12111802853556453,0.1563064201299166
Encode-Decode_Experiment-13-1,2347025,encoding,0.571459,0.727273,0.664545,0.109767,22,16,False,0.091097,0.035702,26,4,30,30,1.0,0.083711,1.0,3674.0,1.0,1.0,Where is the baby in relation to the mother?,1.0,3658.0,2.0,2.0,Who is holding the umbrella in the scene?,11.0,2.0,,,,,0.4666666666666667,0.75,0.3333333333333333,7.0,3.0,4.0,0.92496255,-0.35350355,1.2144194132619168,0.17901615465016277,-0.5222672950154784,-0.3096055021219717,-0.7628895490277472,1.0044857001128467,-1.169086215416603,0.5312177747800755,-0.45570146772357045,0.29508092494550314,-0.7630416927506697
Encode-Decode_Experiment-13-1,2410309,encoding,0.80925,0.15,0.0894,0.074884,20,3,False,0.2882,0.303889,6,17,23,23,1.0,0.299796,1.0,4719.0,2.0,2.0,What is the baby touching?,1.0,3730.0,4.0,4.0,How many laptops or electronic devices are visible?,12.0,2.0,,,,,0.6666666666666666,0.5714285714285714,0.6666666666666666,10.0,4.0,6.0,0.26341785,0.5458321500000001,0.9870399870885236,0.23644541177307293,-0.3569843105718806,0.4780507490662127,-2.0801301780205566,1.0044857001128467,1.1440666154470795,0.5312177747800755,-1.2120035357085475,-0.8406253067125049,0.2520530971343037
Encode-Decode_Experiment-13-1,2347400,encoding,-0.285091,0.25,0.2829,0.115402,20,5,False,0.19563,0.194686,11,18,33,29,0.8788,0.201439,1.0,4850.0,3.0,3.0,What are the men doing with the wine?,1.0,2984.0,1.0,1.0,What are the men sitting on in the scene?,13.0,2.0,,,,,0.4,0.25,0.5,8.0,2.0,6.0,1.0643553000000001,-1.3494463,1.0149145404103375,0.16036325722872383,-1.117635245548357,-1.1818721461160344,-0.19835785088797186,-0.35658024309777203,0.057687628049368105,0.5312177747800755,-0.2963425837553172,-0.701398533010796,-1.0927422658964787
Encode-Decode_Experiment-13-1,2367132,encoding,3.972417,0.461538,0.134923,0.082221,26,12,False,0.095807,0.137473,26,8,36,34,0.9444,0.10363,1.0,3504.0,2.0,2.0,How many men are playing in the scene?,0.0,15044.0,2.0,4.0,In which hand(s) are the men holding the controllers?,15.0,1.0,,,,,0.7058823529411765,0.6,0.6923076923076923,12.0,3.0,9.0,3.1424511578947367,0.8299658421052634,1.2882139288199363,0.16200481987213924,1.8416593809618693,0.726900737741064,0.36617384725180346,0.380102313623487,-1.1138108018847543,-1.6586224047090135,2.0794125160842007,0.6636670041341992,-1.0637267123253349
Encode-Decode_Experiment-13-1,2397102,encoding,2.18961,0.32,0.14304,0.080818,25,8,False,0.086902,0.131221,15,15,33,30,0.9091,0.109785,1.0,3084.0,1.0,1.0,What are the couple doing with the cake?,1.0,5802.0,3.0,3.0,What is the man holding besides the cake knife?,16.0,2.0,,,,,0.8571428571428571,0.8,0.7368421052631579,18.0,4.0,14.0,2.25847315,-0.06886314999999987,1.0573058402760378,0.24075374604155786,0.6024717681130347,-0.06031172850583995,-0.19835785088797186,-0.016313757295117345,-1.2183177143053727,0.5312177747800755,1.0688165647841152,-0.48966405801548213,0.32820535624610186
Encode-Decode_Experiment-13-1,2379478,encoding,3.470931,0.5,0.214687,0.082201,32,16,False,0.359212,0.372775,23,12,35,35,1.0,0.363862,0.0,3873.0,3.0,4.0,What is the position of the babies?,1.0,3325.0,2.0,2.0,How many babies are visible in the scene?,17.0,1.0,,,,,0.7692307692307693,1.0,0.5,10.0,5.0,5.0,2.212073105263158,1.2588578947368423,1.1250667777695535,0.31280320403119166,1.493088145142675,1.1025330031345038,0.17799661453854504,1.0044857001128467,1.9774461623098454,-1.6586224047090135,1.0157703385970276,-0.151214268298405,1.6017205135601793
Encode-Decode_Experiment-13-1,2394020,encoding,2.328615,0.764706,0.460882,0.130474,17,13,False,0.215258,0.250507,25,1,31,26,0.8387,0.216909,0.0,5040.0,1.0,2.0,What are the riders wearing on their heads?,0.0,10517.0,4.0,1.0,Where is the scene taking place?,19.0,0.0,,,,,0.5,0.3333333333333333,0.4444444444444444,6.0,1.0,4.0,1.74860505,0.58000995,1.1056992909485632,0.24103062094663025,0.6990909053073874,0.5079843520821493,-0.5747123163144887,-0.8068999157276884,0.28803705836850263,-3.8484625841981024,0.48591672682974746,-0.24795026523675456,0.33309927770128217
Encode-Decode_Experiment-13-1,150472,encoding,-0.511376,0.2,0.25465,0.106869,20,4,False,0.068257,0.077041,10,20,31,30,0.9677,0.077114,1.0,3206.0,2.0,2.0,Where is the pizza slice located?,1.0,3176.0,4.0,4.0,How many women are in the scene?,22.0,2.0,,,,,0.625,0.5,0.7,10.0,2.0,7.0,1.0591323333333333,-1.5705083333333334,1.579211384976617,0.14201945691978565,-1.2749206774394695,-1.3754827105085863,-0.5747123163144887,0.6417593802638122,-1.4371308958980087,0.5312177747800755,-0.30231367004928444,2.117130186426468,-1.4169793717403079
Encode-Decode_Experiment-13-1,2356125,encoding,2.12238,0.454545,0.247909,0.097361,22,10,False,0.293852,0.291583,19,8,33,27,0.8182,0.293749,1.0,6255.0,1.0,1.0,Where is the luggage being moved to?,1.0,5479.0,2.0,2.0,How many uniformed staff are moving the luggage?,24.0,2.0,,,,,0.45,0.5714285714285714,0.38461538461538464,9.0,4.0,5.0,0.8337153157894737,1.2886646842105265,0.9580767642456105,0.30545718778128544,0.55574176132496,1.128638387427374,-0.19835785088797186,-1.0371132147030815,1.2103971116852976,0.5312177747800755,-0.560018639233418,-0.9852897261156577,1.4718754973564891
Encode-Decode_Experiment-13-1,2360001,encoding,0.852272,0.178571,0.120893,0.067676,28,5,False,0.281527,0.329262,12,22,34,34,1.0,0.312414,0.0,6756.0,2.0,4.0,Where are the men standing?,1.0,4500.0,4.0,4.0,What are the workers doing to the clock?,25.0,1.0,,,,,0.6,0.75,0.5454545454545454,9.0,3.0,6.0,1.2426290500000001,-0.3903570500000001,1.3054770986525426,0.25555809813126223,-0.3270807206263719,-0.3418825368857021,-0.010180618174713418,1.0044857001128467,1.065753911732,-1.6586224047090135,-0.09253352022198863,0.749892437485898,0.5898807013009589
Encode-Decode_Experiment-13-1,2371471,encoding,2.665161,0.521739,0.247565,0.102873,23,12,False,0.265591,0.546979,24,8,32,32,1.0,0.335938,0.0,7127.0,1.0,3.0,What is nearest to the motorcyclists?,1.0,6087.0,2.0,2.0,What stunt is one motorcyclist performing?,26.0,1.0,,,,,0.5,0.6,0.4,10.0,3.0,6.0,1.7406732941176468,0.9244877058823531,1.348804788869518,0.20083567242962952,0.9330161896224163,0.8096848826137547,-0.3865350836012303,1.0044857001128467,0.8787328947376181,-1.6586224047090135,0.4768488537494011,0.9663039598953286,-0.3773693033562503
Encode-Decode_Experiment-13-1,2348899,encoding,2.057856,0.47619,0.250286,0.109777,21,10,False,0.15063,0.129168,22,8,30,30,1.0,0.144907,1.0,6089.0,4.0,4.0,What is the woman doing?,1.0,6644.0,1.0,1.0,Where is the woman located relative to the man? (from your perspective),27.0,2.0,,,,,0.6086956521739131,0.3333333333333333,0.7058823529411765,14.0,2.0,12.0,3.20425995,-1.1464039499999998,1.366065830023324,0.15276120734338297,0.51089263209703,-1.0040435819509073,-0.7628895490277472,1.0044857001128467,-0.47042141843326146,0.5312177747800755,2.150074585161111,1.0525187610019757,-1.2271128222583634
Encode-Decode_Experiment-13-1,2369373,encoding,0.563401,0.444444,0.366222,0.138839,18,8,False,0.227792,0.204199,19,7,28,26,0.9286,0.213981,1.0,4028.0,3.0,3.0,What tool is the chef using?,1.0,4322.0,3.0,3.0,What is the appearance of the oven?,28.0,2.0,,,,,0.6,0.6666666666666666,0.5833333333333334,9.0,2.0,7.0,1.1686786315789472,-0.6052776315789472,1.2495395212083447,0.31539994321972625,-0.5278682230936921,-0.5301142946038243,-1.1392440144542642,0.20266962465708577,0.43513303144879756,0.5312177747800755,-0.17707634004988027,0.4704975231950034,1.6476193559451706
Encode-Decode_Experiment-13-1,2386442,encoding,2.44309,0.695652,0.395913,0.122689,23,16,False,0.127344,0.099366,32,3,35,35,1.0,0.124946,1.0,6171.0,1.0,1.0,Who is brushing their teeth in the scene?,1.0,7296.0,3.0,3.0,What is the person on the right wearing?,29.0,2.0,,,,,0.5294117647058824,0.6666666666666666,0.38461538461538464,9.0,4.0,5.0,2.905053333333333,-0.46196333333333284,1.488627680160608,0.28835178777162634,0.7786598109605907,-0.4045967566057152,0.17799661453854504,1.0044857001128467,-0.7437002463531391,0.5312177747800755,1.8080106506457438,1.664686094287014,1.1695278213010298
Encode-Decode_Experiment-13-1,2387122,encoding,0.600094,0.461538,0.360231,0.16882,13,6,False,0.156238,0.374332,9,7,19,16,0.8421,0.261716,1.0,7180.0,1.0,1.0,What is the polar bear doing next to the enclosure edge?,1.0,5457.0,3.0,3.0,Where is the polar bear located in the scene?,30.0,2.0,,,,,0.47058823529411764,0.4,0.5,8.0,2.0,6.0,0.8150019000000001,-0.21490790000000004,0.825792062281955,0.17566609422651397,-0.5023637736057429,-0.18822065093682508,-2.83283910887359,-0.768718197848843,-0.4046072954849373,0.5312177747800755,-0.5814124997853075,-1.6460203951190162,-0.8222559165141377
Encode-Decode_Experiment-13-1,2370664,encoding,-1.017978,0.058824,0.166882,0.106151,17,1,False,0.104568,0.133365,2,24,26,26,1.0,0.13115,1.0,5084.0,4.0,4.0,How many donuts are in the scene?,1.0,3212.0,1.0,1.0,Where are the people located in the scene?,31.0,2.0,,,,,0.17647058823529413,0.14285714285714285,0.16666666666666666,3.0,1.0,2.0,0.911983,-1.929961,1.4103172679001217,0.24727618331718346,-1.6270479256746657,-1.6902985683759684,-1.515598479880781,1.0044857001128467,-1.010993838412881,0.5312177747800755,-0.4705401634406013,1.2735441835843255,0.4434931455634709
Encode-Decode_Experiment-13-1,2409918,encoding,-1.778182,0.142857,0.505714,0.204061,7,1,False,0.100713,0.241141,2,7,10,9,0.9,0.217613,1.0,5887.0,4.0,4.0,Where are the elephants in the scene?,0.0,6895.0,4.0,2.0,What is the elephant on the right (from your perspective) doing with its trunk?,36.0,1.0,,,,,0.5,0.16666666666666666,0.7,8.0,1.0,7.0,2.30062295,-4.07880495,1.4285516728277252,0.14088973618811945,-2.1554480161152663,-3.5722992162379517,-4.526434203292916,-0.11850600220614564,-1.0562351800615595,-1.6586224047090135,1.117003755921998,1.3646207055694886,-1.4369478283457116
Encode-Decode_Experiment-13-1,2385550,encoding,3.342677,0.464286,0.199464,0.079224,28,13,False,0.283041,0.31204,23,11,34,34,1.0,0.292423,1.0,4891.0,3.0,3.0,Which side of the frame is the boy on? (from your perspective),1.0,3565.0,4.0,4.0,Where are the tangerines in the scene?,37.0,2.0,,,,,0.7333333333333333,1.0,0.6666666666666666,11.0,3.0,8.0,1.8002137,1.5424633,1.3029096129785058,0.202325659555628,1.4039417775895329,1.3509203075929888,-0.010180618174713418,1.0044857001128467,1.083521847206993,0.5312177747800755,0.5449176208296734,0.7370684563158839,-0.3510329332834189
Encode-Decode_Experiment-13-1,2374670,encoding,0.226189,0.473684,0.443421,0.133796,19,9,False,0.237692,0.276194,25,7,35,32,0.9143,0.259207,1.0,5496.0,3.0,3.0,Where is the man standing relative to the vehicle?,1.0,4751.0,1.0,1.0,What vehicle sprays water in the scene?,41.0,2.0,,,,,0.47368421052631576,0.5714285714285714,0.36363636363636365,9.0,4.0,4.0,1.3032671,-1.0770781,0.9337964761268012,0.1782325992587543,-0.7622564284933688,-0.9433266115010138,0.17799661453854504,0.04208181122547007,0.551317021674976,0.5312177747800755,-0.023209886288293236,-1.1065639987578777,-0.7768914800411921
Encode-Decode_Experiment-13-1,2344622,encoding,1.476616,0.304348,0.16613,0.093604,23,7,False,0.166774,0.290839,15,13,33,28,0.8485,0.25128,1.0,3713.0,4.0,4.0,What is the cat resting its head on?,1.0,4659.0,2.0,2.0,Where is the cat located?,44.0,2.0,,,,,1.0,1.0,1.0,14.0,5.0,9.0,0.4115323,1.0650837,0.8878657860599796,0.2320633177791066,0.10688624885293396,0.9328216753139464,-0.19835785088797186,-0.6968467289004268,-0.2809593640684708,0.5312177747800755,-1.0426736856871393,-1.3359768872109572,0.17459709291434095
Encode-Decode_Experiment-14-1,2369373,encoding,1.436457,0.444444,0.269333,0.121905,18,8,False,0.201006,0.326698,14,8,25,22,0.88,0.222772,0.0,5927.0,2.0,3.0,What is the appearance of the oven?,1.0,4681.0,3.0,3.0,What tool is the chef using?,1.0,1.0,,,,,0.9333333333333333,1.0,0.9166666666666666,14.0,3.0,11.0,1.1686786315789472,0.26777836842105285,1.2495395212083447,0.31539994321972625,0.07897266351004707,0.23452566802342548,-1.7037757125940394,-0.34310434266994433,0.12077905546915947,-1.6586224047090135,-0.17707634004988027,0.4704975231950034,1.6476193559451706
Encode-Decode_Experiment-14-1,2397102,encoding,3.841226,0.37931,0.122724,0.066798,29,11,False,0.11555,0.149194,21,15,37,36,0.973,0.126972,1.0,4256.0,1.0,1.0,What are the couple doing with the cake?,1.0,4480.0,3.0,3.0,What is the man holding besides the cake knife?,2.0,2.0,,,,,0.6666666666666666,0.4,0.631578947368421,14.0,2.0,12.0,2.25847315,1.5827528499999999,1.0573058402760378,0.24075374604155786,1.7504715731300335,1.3862067038908992,0.5543510799650619,0.7012779404867184,-0.8821117595579422,0.5312177747800755,1.0688165647841152,-0.48966405801548213,0.32820535624610186
Encode-Decode_Experiment-14-1,2350974,encoding,2.712301,0.6,0.28845,0.114866,20,12,False,0.287804,0.272957,27,3,33,30,0.9091,0.279347,1.0,12366.0,4.0,4.0,Between which two objects is the child standing?,1.0,3297.0,1.0,1.0,What is the child up against?,3.0,2.0,,,,,0.0,0.0,0.0,0.0,0.0,0.0,1.986942692307692,0.725358307692308,1.3508148030930802,0.33040060879114963,0.965782105433659,0.6352833601569791,-0.19835785088797186,-0.016313757295117345,1.1394192558380323,0.5312177747800755,0.758393026248322,0.9763435035683784,1.9127646534678202
Encode-Decode_Experiment-14-1,2362704,encoding,1.405212,0.173913,0.082522,0.065037,23,4,False,0.323391,0.188194,9,19,30,28,0.9333,0.248635,1.0,2038.0,2.0,2.0,How many bears are in the scene?,1.0,3418.0,4.0,4.0,What are the bears doing with the pumpkins?,4.0,2.0,,,,,0.6666666666666666,0.4,0.5714285714285714,6.0,2.0,4.0,0.15879429999999997,1.2464176999999999,1.019587219638888,0.19094360793367365,0.05725499190371948,1.0916376309720595,-0.7628895490277472,0.25545023466607886,1.557059625553084,0.5312177747800755,-1.3316130000802362,-0.6780596100144958,-0.5522171706995513
Encode-Decode_Experiment-14-1,2347025,encoding,0.138287,0.684211,0.667737,0.119127,19,13,False,0.144578,0.062884,21,4,29,25,0.8621,0.129955,1.0,6163.0,1.0,1.0,Where is the baby in relation to the mother?,0.0,4779.0,3.0,2.0,Who is holding the umbrella in the scene?,5.0,1.0,,,,,0.5333333333333333,0.75,0.4166666666666667,8.0,3.0,5.0,0.92496255,-0.78667555,1.2144194132619168,0.17901615465016277,-0.8233550608998145,-0.6889862312976156,-0.9510667817410057,-0.5441198573850443,-0.5414462173068806,-1.6586224047090135,-0.45570146772357045,0.29508092494550314,-0.7630416927506697
Encode-Decode_Experiment-14-1,2408717,encoding,1.009447,0.26087,0.178,0.082094,23,6,False,0.321244,0.267482,12,14,33,26,0.7879,0.264068,1.0,2100.0,2.0,2.0,How many surfers are in the scene?,1.0,4261.0,3.0,3.0,What are the surfers doing with the surfboards?,6.0,2.0,,,,,0.6,0.2,0.7777777777777778,9.0,1.0,7.0,0.5491520000000001,0.4602949999999999,0.7767648109453384,0.15964141103410187,-0.2178320397262433,0.403135596797353,-0.19835785088797186,-1.377379700505736,1.531862956157568,0.5312177747800755,-0.8853418172503243,-1.8908998716887142,-1.1055013080287985
Encode-Decode_Experiment-14-1,2383555,encoding,-0.84846,0.045455,0.107,0.072538,22,1,False,0.40903,0.212643,2,23,32,25,0.7812,0.213888,1.0,4001.0,2.0,2.0,Who is holding the child in the boat?,1.0,3810.0,4.0,4.0,What is the woman at the back doing in the boat?,7.0,2.0,,,,,0.0,0.0,0.0,0.0,0.0,0.0,0.15933964705882353,-1.0077996470588235,0.9639929068800858,0.2824364248101681,-1.5092199130210757,-0.8826511523462576,-0.3865350836012303,-1.452620144561109,2.562098084035882,0.5312177747800755,-1.33098953940047,-0.955739998726393,1.0649704158377549
Encode-Decode_Experiment-14-1,2347400,encoding,2.033132,0.375,0.195417,0.088328,24,9,False,0.190789,0.219729,20,11,36,31,0.8611,0.205055,1.0,4992.0,3.0,3.0,What are the men doing with the wine?,1.0,2760.0,1.0,1.0,What are the men sitting on in the scene?,8.0,2.0,,,,,0.5,0.375,0.5833333333333334,10.0,3.0,7.0,1.0643553000000001,0.9687767,1.0149145404103375,0.16036325722872383,0.4937075556753676,0.8484740723185572,0.36617384725180346,-0.5553497744082343,0.0008748304044255433,0.5312177747800755,-0.2963425837553172,-0.701398533010796,-1.0927422658964787
Encode-Decode_Experiment-14-1,2409918,encoding,1.515797,0.45,0.28035,0.111921,20,9,False,0.095327,0.10184,20,11,33,31,0.9394,0.104578,0.0,9799.0,1.0,2.0,What is the elephant on the right (from your perspective) doing with its trunk?,1.0,3591.0,4.0,4.0,Where are the elephants in the scene?,9.0,1.0,,,,,0.625,0.5,0.6,10.0,3.0,6.0,2.30062295,-0.7848259500000001,1.4285516728277252,0.14088973618811945,0.13412004917962686,-0.6873663145054794,-0.19835785088797186,0.3239527285075373,-1.1194439650472359,-1.6586224047090135,1.117003755921998,1.3646207055694886,-1.4369478283457116
Encode-Decode_Experiment-14-1,2356991,encoding,0.473833,0.2,0.15932,0.085853,25,5,False,0.155579,0.201171,8,24,33,32,0.9697,0.189783,1.0,9904.0,2.0,2.0,What is the current action of the gloved player on the base?,1.0,6912.0,1.0,1.0,How is the player on the left (from your perspective) reaching the base?,10.0,2.0,,,,,0.4,0.2857142857142857,0.4,6.0,2.0,4.0,1.01086845,-0.5370354500000001,1.0552007294474195,0.2451637476420499,-0.5901248532884605,-0.47034642270084426,-0.19835785088797186,0.664219214310192,-0.4123411590767606,0.5312177747800755,-0.3574907046079252,-0.5001785866455677,0.4061546432874283
Encode-Decode_Experiment-14-1,2411268,encoding,2.938451,0.555556,0.221056,0.113835,18,10,False,0.157453,0.178419,16,11,33,27,0.8182,0.164798,1.0,7538.0,2.0,2.0,What is the child holding while picking fruit?,1.0,7174.0,4.0,4.0,Where is the fruit branch relative to the child?,11.0,2.0,,,,,0.6875,0.3333333333333333,0.9,11.0,2.0,9.0,1.812951111111111,1.1254998888888892,1.2541907966656,0.28745648292422177,1.1229737019697754,0.9857353857908014,-0.19835785088797186,-1.0371132147030815,-0.3903483512299061,0.5312177747800755,0.5594794945233301,0.4937295394370298,1.1537027988039759
Encode-Decode_Experiment-14-1,2370664,encoding,0.09714,0.173913,0.166087,0.080565,23,4,False,0.23596,0.091393,12,23,37,35,0.9459,0.147265,1.0,3149.0,4.0,4.0,How many donuts are in the scene?,1.0,5105.0,1.0,1.0,Where are the people located in the scene?,12.0,2.0,,,,,0.4117647058823529,0.14285714285714285,0.4166666666666667,7.0,1.0,5.0,0.911983,-0.814843,1.4103172679001217,0.24727618331718346,-0.8519553820259325,-0.7136558491861644,0.5543510799650619,0.3969471891582713,0.5309906912636891,0.5312177747800755,-0.4705401634406013,1.2735441835843255,0.4434931455634709
Encode-Decode_Experiment-14-1,2387122,encoding,0.509501,0.5,0.435455,0.126684,22,11,False,0.114624,0.070043,21,8,34,29,0.8529,0.109765,1.0,9959.0,1.0,1.0,What is the polar bear doing next to the enclosure edge?,1.0,3811.0,3.0,3.0,Where is the polar bear located in the scene?,13.0,2.0,,,,,0.6470588235294118,0.8,0.5833333333333334,11.0,4.0,7.0,0.8150019000000001,-0.3055009000000001,0.825792062281955,0.17566609422651397,-0.5653328574217783,-0.2675638180810752,-0.010180618174713418,-0.6474350939983915,-0.8929790701588958,0.5312177747800755,-0.5814124997853075,-1.6460203951190162,-0.8222559165141377
Encode-Decode_Experiment-14-1,2374670,encoding,1.280649,0.478261,0.332348,0.113937,23,11,False,0.249489,0.191983,18,9,32,27,0.8438,0.235517,1.0,11581.0,3.0,3.0,Where is the man standing relative to the vehicle?,1.0,5812.0,1.0,1.0,What vehicle sprays water in the scene?,15.0,2.0,,,,,0.3684210526315789,0.2857142857142857,0.36363636363636365,7.0,2.0,4.0,1.3032671,-0.022618100000000085,0.9337964761268012,0.1782325992587543,-0.029325847536157856,-0.019809385811104297,-0.3865350836012303,-0.7496273389094198,0.6897637421495444,0.5312177747800755,-0.023209886288293236,-1.1065639987578777,-0.7768914800411921
Encode-Decode_Experiment-14-1,2344622,encoding,0.544709,0.25,0.19535,0.100329,20,5,False,0.154286,0.213588,10,15,31,25,0.8065,0.213326,1.0,4246.0,4.0,4.0,What is the cat resting its head on?,1.0,5657.0,2.0,2.0,Where is the cat located?,16.0,2.0,,,,,0.14285714285714285,0.2,0.1111111111111111,2.0,1.0,1.0,0.4115323,0.13317669999999998,0.8878657860599796,0.2320633177791066,-0.5408605968387865,0.11663882604417176,-0.5747123163144887,-1.168503243874404,-0.4275154923456947,0.5312177747800755,-1.0426736856871393,-1.3359768872109572,0.17459709291434095
Encode-Decode_Experiment-14-1,2356125,encoding,0.717822,0.296296,0.231481,0.090294,27,8,False,0.280217,0.247689,17,13,36,30,0.8333,0.255928,0.0,6148.0,4.0,2.0,How many uniformed staff are moving the luggage?,1.0,4147.0,1.0,1.0,Where is the luggage being moved to?,17.0,1.0,,,,,0.0,0.0,0.0,0.0,0.0,0.0,0.8337153157894737,-0.1158933157894737,0.9580767642456105,0.30545718778128544,-0.4205337834354847,-0.10150169136230806,0.36617384725180346,-0.8675414676529135,1.0503800706010609,-1.6586224047090135,-0.560018639233418,-0.9852897261156577,1.4718754973564891
Encode-Decode_Experiment-14-1,2360001,encoding,2.320179,0.269231,0.1145,0.066689,26,7,False,0.371708,0.245339,14,17,32,31,0.9688,0.318284,1.0,4558.0,4.0,4.0,Where are the men standing?,1.0,5194.0,4.0,4.0,What are the workers doing to the clock?,18.0,2.0,,,,,0.5333333333333333,1.0,0.36363636363636365,8.0,4.0,4.0,1.2426290500000001,1.0775499499999999,1.3054770986525426,0.25555809813126223,0.6932272382351844,0.9437398671986615,-0.3865350836012303,0.654112288989321,2.1240961766397772,0.5312177747800755,-0.09253352022198863,0.749892437485898,0.5898807013009589
Encode-Decode_Experiment-14-1,2367132,encoding,2.619632,0.428571,0.179952,0.094906,21,9,False,0.109982,0.086747,22,8,33,30,0.9091,0.100056,1.0,7143.0,4.0,4.0,In which hand(s) are the men holding the controllers?,1.0,3069.0,2.0,2.0,How many men are playing in the scene?,19.0,2.0,,,,,0.6470588235294118,0.6,0.6153846153846154,11.0,3.0,8.0,3.1424511578947367,-0.5228191578947365,1.2882139288199363,0.16200481987213924,0.9013700423807943,-0.4578955088258273,-0.19835785088797186,-0.016313757295117345,-0.9474564522427262,0.5312177747800755,2.0794125160842007,0.6636670041341992,-1.0637267123253349
Encode-Decode_Experiment-14-1,2371471,encoding,-0.129305,0.333333,0.347542,0.109883,24,8,False,0.352704,0.488962,19,13,32,32,1.0,0.408059,1.0,9321.0,2.0,2.0,What stunt is one motorcyclist performing?,1.0,5747.0,3.0,3.0,What is nearest to the motorcyclists?,21.0,2.0,,,,,0.5,0.4,0.4666666666666667,10.0,2.0,7.0,1.7406732941176468,-1.8699782941176468,1.348804788869518,0.20083567242962952,-1.009352026189633,-1.6377645110140535,-0.3865350836012303,1.0044857001128467,1.901069858431869,0.5312177747800755,0.4768488537494011,0.9663039598953286,-0.3773693033562503
Encode-Decode_Experiment-14-1,2349475,encoding,-0.367195,0.068966,0.089241,0.055218,29,2,False,0.111236,0.069909,4,29,35,33,0.9429,0.077785,0.0,6205.0,2.0,1.0,What is the man doing to power the blender?,1.0,3986.0,3.0,3.0,Which part of the blender is the woman holding?,27.0,1.0,,,,,0.4,0.2,0.6,8.0,2.0,6.0,1.378247,-1.745442,1.1896970950704437,0.1493651281941934,-1.1747038232268947,-1.528693125810981,0.17799661453854504,0.3632574380887015,-0.9327398134807435,-1.6586224047090135,0.06250987448872872,0.1715988170714286,-1.2871404531748023
Encode-Decode_Experiment-14-1,2410309,encoding,0.556816,0.291667,0.238125,0.096157,24,7,False,0.138473,0.263642,14,16,32,30,0.9375,0.204776,1.0,3562.0,4.0,4.0,How many laptops or electronic devices are visible?,1.0,4495.0,2.0,2.0,What is the baby touching?,30.0,2.0,,,,,0.3333333333333333,0.14285714285714285,0.4444444444444444,5.0,1.0,4.0,0.26341785,0.29339814999999997,0.9870399870885236,0.23644541177307293,-0.5324453031873925,0.2569639867899701,-0.3865350836012303,0.30261588616347634,-0.6130930112796906,0.5312177747800755,-1.2120035357085475,-0.8406253067125049,0.2520530971343037
Encode-Decode_Experiment-14-1,150472,encoding,1.234119,0.363636,0.240136,0.100071,22,8,False,0.095566,0.081963,18,13,31,31,1.0,0.089862,1.0,2356.0,4.0,4.0,How many women are in the scene?,1.0,3474.0,2.0,2.0,Where is the pizza slice located?,31.0,2.0,,,,,0.375,0.25,0.5,6.0,1.0,5.0,1.0591323333333333,0.17498666666666662,1.579211384976617,0.14201945691978565,-0.06166776655815869,0.15325683376583743,-0.5747123163144887,1.0044857001128467,-1.1166391192225837,0.5312177747800755,-0.30231367004928444,2.117130186426468,-1.4169793717403079
Encode-Decode_Experiment-14-1,2386442,encoding,3.735814,0.692308,0.293846,0.10666,26,18,False,0.114149,0.106087,26,7,33,33,1.0,0.112439,1.0,5893.0,3.0,3.0,What is the person on the right wearing?,1.0,5111.0,1.0,1.0,Who is brushing their teeth in the scene?,32.0,2.0,,,,,0.0,0.0,0.0,0.0,0.0,0.0,2.905053333333333,0.8307606666666669,1.488627680160608,0.28835178777162634,1.6772021476422379,0.7275968610400584,-0.19835785088797186,1.0044857001128467,-0.8985535545384347,0.5312177747800755,1.8080106506457438,1.664686094287014,1.1695278213010298
Encode-Decode_Experiment-14-1,2394020,encoding,3.142319,0.636364,0.301136,0.106681,22,14,False,0.276657,0.296235,19,8,33,27,0.8182,0.293586,0.0,5297.0,4.0,1.0,Where is the scene taking place?,1.0,4901.0,2.0,2.0,What are the riders wearing on their heads?,33.0,1.0,,,,,1.0,0.6666666666666666,1.0,12.0,2.0,9.0,1.74860505,1.39371395,1.1056992909485632,0.24103062094663025,1.264677599394604,1.2206426422143328,-0.19835785088797186,-1.0371132147030815,1.0086007771459906,-1.6586224047090135,0.48591672682974746,-0.24795026523675456,0.33309927770128217
Encode-Decode_Experiment-14-1,2385851,encoding,0.548615,0.136364,0.0995,0.067194,22,3,False,0.125317,0.240421,6,18,27,24,0.8889,0.226293,1.0,2432.0,2.0,2.0,What are the men doing with the suitcases?,1.0,9734.0,3.0,3.0,Where are the men?,35.0,2.0,,,,,0.8125,0.5714285714285714,1.0,13.0,4.0,9.0,-0.24730138888888892,0.7959163888888889,0.9812015899517188,0.19110772079566124,-0.5381456272342318,0.6970795434134988,-1.3274212471675226,-0.2431580811635538,-0.7674886249580345,0.5312177747800755,-1.7958764267337193,-0.8697867138052781,-0.5493163825037337
Encode-Decode_Experiment-14-1,2385550,encoding,-0.836359,0.095238,0.175429,0.095881,21,2,False,0.368029,0.282615,4,22,27,26,0.963,0.288785,1.0,2935.0,4.0,4.0,Where are the tangerines in the scene?,1.0,6075.0,3.0,3.0,Which side of the frame is the boy on? (from your perspective),36.0,2.0,,,,,0.4666666666666667,0.6666666666666666,0.4166666666666667,7.0,2.0,5.0,1.8002137,-2.6365727,1.3029096129785058,0.202325659555628,-1.5008087898299038,-2.3091632733662295,-1.3274212471675226,0.588978770254819,2.0809203281506754,0.5312177747800755,0.5449176208296734,0.7370684563158839,-0.3510329332834189
Encode-Decode_Experiment-14-1,2345035,encoding,-0.717731,0.1,0.1709,0.098784,20,2,False,0.109165,0.162186,5,19,33,24,0.7273,0.143989,0.0,7745.0,4.0,3.0,What are the people doing with the football?,1.0,5836.0,2.0,2.0,Who runs toward the football in the scene?,44.0,1.0,,,,,0.47619047619047616,0.2,0.5333333333333333,10.0,1.0,8.0,0.3609163,-1.0786473,1.1310923374930932,0.23102851811236144,-1.4183532306263378,-0.9447009483469375,-0.19835785088797186,-2.057912672111047,-0.9570445653755331,-1.6586224047090135,-1.1005397459444848,-0.12111802853556453,0.1563064201299166
Encode-Decode_Experiment-14-1,2379478,encoding,2.698042,0.521739,0.234739,0.106373,23,12,False,0.344475,0.329327,20,8,33,28,0.8485,0.350471,0.0,3323.0,3.0,4.0,What is the position of the babies?,1.0,1994.0,2.0,2.0,How many babies are visible in the scene?,45.0,1.0,,,,,0.6923076923076923,0.8,0.5,9.0,4.0,5.0,2.212073105263158,0.4859688947368421,1.1250667777695535,0.31280320403119166,0.9558710067159563,0.42562130895336014,-0.19835785088797186,-0.6968467289004268,1.8044963174650783,-1.6586224047090135,1.0157703385970276,-0.151214268298405,1.6017205135601793
Encode-Decode_Experiment-14-1,2412687,encoding,-0.388971,0.375,0.430187,0.141881,16,6,False,0.136834,0.129977,12,11,28,23,0.8214,0.129204,1.0,2710.0,4.0,4.0,What is the dog biting onto in the scene?,1.0,7457.0,3.0,3.0,What is the human's body position?,46.0,2.0,,,,,0.0,0.0,0.0,0.0,0.0,0.0,1.4746690588235294,-1.8636400588235293,1.192851862316968,0.2971542589208023,-1.1898398135261228,-1.6322133573670747,-1.1392440144542642,-1.0011774802288738,-0.6323279163282468,0.5312177747800755,0.17274309453811368,0.18735613021802738,1.325116506394377
Encode-Decode_Experiment-14-1,2348899,encoding,4.824092,0.730769,0.279808,0.093481,26,19,False,0.204805,0.124355,31,1,32,32,1.0,0.202291,1.0,4351.0,1.0,1.0,Where is the woman located relative to the man? (from your perspective),1.0,4085.0,4.0,4.0,What is the woman doing?,58.0,2.0,,,,,0.5652173913043478,0.3333333333333333,0.6470588235294118,13.0,2.0,11.0,3.20425995,1.6198320500000003,1.366065830023324,0.15276120734338297,2.433638832564332,1.4186814112432897,-0.3865350836012303,1.0044857001128467,0.16536319474888186,0.5312177747800755,2.150074585161111,1.0525187610019757,-1.2271128222583634
Encode-Decode_Experiment-15-1,2347025,encoding,-0.104589,0.785714,0.798929,0.126345,14,11,False,0.067175,0.083575,42,2,49,44,0.898,0.079173,1.0,6200.0,2.0,2.0,Who is holding the umbrella in the scene?,1.0,2622.0,1.0,1.0,Where is the baby in relation to the mother?,1.0,2.0,,,,,0.6,0.5,0.5833333333333334,9.0,2.0,7.0,0.92496255,-1.02955155,1.2144194132619168,0.17901615465016277,-0.9921725103816,-0.9017019053930413,2.8124778725241635,-0.1409658362525255,-1.449828984526769,0.5312177747800755,-0.45570146772357045,0.29508092494550314,-0.7630416927506697
Encode-Decode_Experiment-15-1,2374670,encoding,0.823044,0.416667,0.323792,0.112843,24,10,False,0.230862,0.247911,25,9,35,34,0.9714,0.242316,1.0,7792.0,1.0,1.0,What vehicle sprays water in the scene?,0.0,4486.0,2.0,3.0,Where is the man standing relative to the vehicle?,2.0,1.0,,,,,0.42105263157894735,0.42857142857142855,0.36363636363636365,8.0,3.0,4.0,1.3032671,-0.4802231,0.9337964761268012,0.1782325992587543,-0.34739642252138675,-0.4205890266337348,0.17799661453854504,0.6833100732496152,0.4711618041755016,-1.6586224047090135,-0.023209886288293236,-1.1065639987578777,-0.7768914800411921
Encode-Decode_Experiment-15-1,2369373,encoding,1.50858,0.4375,0.250875,0.123709,16,7,False,0.185941,0.287374,21,10,37,31,0.8378,0.191001,1.0,4360.0,3.0,3.0,What tool is the chef using?,1.0,3235.0,3.0,3.0,What is the appearance of the oven?,3.0,2.0,,,,,0.6666666666666666,0.6666666666666666,0.6666666666666666,10.0,2.0,8.0,1.1686786315789472,0.3399013684210528,1.2495395212083447,0.31539994321972625,0.12910368060920388,0.29769243856800115,0.5543510799650619,-0.8170068410485594,-0.0560201175366363,0.5312177747800755,-0.17707634004988027,0.4704975231950034,1.6476193559451706
Encode-Decode_Experiment-15-1,2371471,encoding,0.760647,0.45,0.35825,0.120621,20,9,False,0.214091,0.578966,21,17,38,38,1.0,0.377325,1.0,5313.0,2.0,2.0,What stunt is one motorcyclist performing?,1.0,8140.0,3.0,3.0,What is nearest to the motorcyclists?,4.0,2.0,,,,,0.5,0.4,0.4666666666666667,10.0,2.0,7.0,1.7406732941176468,-0.9800262941176469,1.348804788869518,0.20083567242962952,-0.39076712360059995,-0.858326692569365,0.7425283126783204,1.0044857001128467,0.27434143042971976,0.5312177747800755,0.4768488537494011,0.9663039598953286,-0.3773693033562503
Encode-Decode_Experiment-15-1,2349475,encoding,0.74524,0.285714,0.209952,0.101661,21,6,False,0.088462,0.044051,16,19,37,35,0.9459,0.068249,1.0,4076.0,3.0,3.0,Which part of the blender is the woman holding?,1.0,4491.0,1.0,1.0,What is the man doing to power the blender?,5.0,2.0,,,,,0.7,0.7,0.7,14.0,7.0,7.0,1.378247,-0.633007,1.1896970950704437,0.1493651281941934,-0.40147617037412164,-0.5544002318554451,0.5543510799650619,0.3969471891582713,-1.200009934027308,0.5312177747800755,0.06250987448872872,0.1715988170714286,-1.2871404531748023
Encode-Decode_Experiment-15-1,2356125,encoding,0.744871,0.28,0.216,0.085921,25,7,False,0.289355,0.192174,15,25,45,40,0.8889,0.230506,1.0,7624.0,1.0,1.0,Where is the luggage being moved to?,1.0,5413.0,2.0,2.0,How many uniformed staff are moving the luggage?,6.0,2.0,,,,,0.5,0.42857142857142855,0.5384615384615384,10.0,3.0,7.0,0.8337153157894737,-0.08884431578947372,0.9580767642456105,0.30545718778128544,-0.4017326536777778,-0.07781163442540542,2.0597689416711296,-0.2431580811635538,1.1576214143067998,0.5312177747800755,-0.560018639233418,-0.9852897261156577,1.4718754973564891
