SubjectID,StimID,Phase,svg_z_enc,svg_obs,svg_null_mean,svg_null_std,n_transitions,n_relational,low_n_enc,mean_salience_relational_enc,mean_salience_nonrelational,n_relational_fixations,n_nonrelational_fixations,n_fixations_enc,n_aoi,aoi_prop_enc,mean_salience_enc,mean_meaning_enc,enc_q1_accuracy,enc_q1_rt_ms,enc_q1_response,enc_q1_correct_key,enc_q1_question,enc_q2_accuracy,enc_q2_rt_ms,enc_q2_response,enc_q2_correct_key,enc_q2_question,enc_trial_index,enc_total_correct,dec_free_response,dec_rt_ms,dec_trial_index,dec_cue_question,prop_total,prop_relations,prop_objects,n_total_recalled,n_relations_recalled,n_objects_recalled,svg_z_enc_image_mean,svg_z_enc_within,svg_z_enc_within_sd,prop_total_image_sd,svg_z_enc_z,svg_z_enc_within_z,n_fixations_enc_z,mean_salience_enc_z,mean_meaning_enc_z,svg_z_enc_image_mean_z
Encode-Decode_Experiment-1-1,2387122,encoding,-0.330065,0.347826,0.387522,0.120266,23,8,False,0.316857,0.346243,16,13,33,29,0.8788,0.308556,0.847477,1.0,7463.0,1.0,1.0,What is the polar bear doing next to the enclosure edge?,1.0,5668.0,3.0,3.0,Where is the polar bear located in the scene?,2.0,2.0,,,,,0.6470588235294118,0.4,0.6666666666666666,11.0,2.0,8.0,0.95913252,-1.28919752,0.8077495096045205,0.1703801241070615,-1.150242353391932,-1.1123301682175448,-0.18620026395985498,1.4022803550848404,1.0819023937528018,-0.4381014897794693
Encode-Decode_Experiment-1-1,2374670,encoding,-0.476733,0.3,0.35995,0.125752,20,6,False,0.196744,0.192463,22,14,39,36,0.9231,0.212175,0.692295,0.0,6044.0,4.0,1.0,What vehicle sprays water in the scene?,1.0,9310.0,3.0,3.0,Where is the man standing relative to the vehicle?,3.0,1.0,,,,,0.21052631578947367,0.14285714285714285,0.2727272727272727,4.0,1.0,3.0,1.4215436399999999,-1.89827664,0.9526515902668666,0.18897085580323902,-1.2511425578409252,-1.6378486163195811,0.881778820114296,0.2106623918682977,-0.40367335897890416,0.08954062837841037
Encode-Decode_Experiment-1-1,2356991,encoding,2.017518,0.321429,0.158786,0.080615,28,9,False,0.148569,0.176891,13,20,37,33,0.8919,0.161358,0.713162,1.0,10953.0,1.0,1.0,How is the player on the left (from your perspective) reaching the base?,1.0,6687.0,2.0,2.0,What is the current action of the gloved player on the base?,4.0,2.0,,,,,0.6875,0.5714285714285714,0.5,11.0,4.0,5.0,0.9599711999999999,1.0575468,1.1299679288759703,0.23763702187720387,0.46477663276033615,0.9124600316807358,0.525785792089579,-0.4176196350537622,-0.20391108479599343,-0.4371444996195947
Encode-Decode_Experiment-1-1,2412687,encoding,2.830765,0.666667,0.3048,0.127834,15,10,False,0.144164,0.08408,17,9,29,26,0.8966,0.127853,0.444878,1.0,9147.0,3.0,3.0,What is the human's body position?,1.0,5930.0,4.0,4.0,What is the dog biting onto in the scene?,5.0,2.0,,,,,0.4666666666666667,0.5,0.4444444444444444,7.0,2.0,4.0,1.392583090909091,1.438181909090909,1.121179392943873,0.2673871939639434,1.0242496505115184,1.2408751180862652,-0.898186320009289,-0.8318626897800078,-2.7722257427194177,0.05649469845928904
Encode-Decode_Experiment-1-1,2360001,encoding,-0.770094,0.041667,0.092708,0.06628,24,1,False,0.315042,0.283575,2,35,38,37,0.9737,0.279301,0.511257,1.0,11249.0,4.0,4.0,What are the workers doing to the clock?,1.0,4944.0,4.0,4.0,Where are the men standing?,6.0,2.0,,,,,0.45,0.42857142857142855,0.5454545454545454,9.0,3.0,6.0,1.4038728,-2.1739668,1.2583315202774465,0.20068632240389478,-1.452960165481045,-1.8757163420104603,0.7037823061019375,1.0405826811252432,-2.1367716765868905,0.06937701413135482
Encode-Decode_Experiment-1-1,2397102,encoding,3.190341,0.571429,0.227286,0.10787,21,12,False,0.137035,0.164877,24,11,35,35,1.0,0.145785,0.651093,1.0,4439.0,1.0,1.0,What are the couple doing with the cake?,1.0,4350.0,3.0,3.0,What is the man holding besides the cake knife?,7.0,2.0,,,,,0.5714285714285714,0.6,0.47368421052631576,12.0,3.0,9.0,2.27765524,0.91268576,1.2432531819164083,0.23108201096190967,1.2716198465662214,0.7874727411440859,0.16979276406486202,-0.6101582738017647,-0.7981050080364732,1.066421413605919
Encode-Decode_Experiment-1-1,150472,encoding,1.668758,0.35,0.19075,0.09543,20,7,False,0.0896,0.086865,13,17,30,30,1.0,0.08805,0.746166,1.0,3118.0,4.0,4.0,How many women are in the scene?,1.0,3643.0,2.0,2.0,Where is the pizza slice located?,8.0,2.0,,,,,0.5,0.5,0.5,8.0,2.0,5.0,1.150756347826087,0.518001652173913,1.4947937518299248,0.18270380898651734,0.22484730050223709,0.44693606368368965,-0.7201898059969305,-1.3239718169929235,0.11204013469568253,-0.2194458432550575
Encode-Decode_Experiment-1-1,2379478,encoding,3.182431,0.866667,0.396667,0.147686,15,13,False,0.395444,,34,0,35,34,0.9714,0.406243,0.866662,1.0,4689.0,4.0,4.0,What is the position of the babies?,1.0,2082.0,2.0,2.0,How many babies are visible in the scene?,9.0,2.0,,,,,0.5625,0.8,0.5,9.0,4.0,5.0,2.318576956521739,0.8638540434782609,1.1559328518651655,0.2577925144752665,1.2661781645552064,0.7453403365975914,0.16979276406486202,2.610045204720499,1.265562681776914,1.1131158382213704
Encode-Decode_Experiment-1-1,2369373,encoding,1.123483,0.6,0.46848,0.117064,25,15,False,0.238755,0.215394,30,10,40,40,1.0,0.232915,0.737717,1.0,6485.0,3.0,3.0,What tool is the chef using?,1.0,4938.0,3.0,3.0,What is the appearance of the oven?,10.0,2.0,,,,,0.0,0.0,0.0,0.0,0.0,0.0,1.0857792916666666,0.03770370833333336,1.1744307155537281,0.30599341805477037,-0.15027446416984389,0.03253106803435517,1.0597753341266545,0.46708385000954034,0.031156852260669186,-0.29358902463793607
Encode-Decode_Experiment-1-1,2347025,encoding,0.098753,0.473684,0.460684,0.131642,19,9,False,0.098077,0.100803,26,11,39,37,0.9487,0.101181,0.746239,1.0,4866.0,1.0,1.0,Where is the baby in relation to the mother?,1.0,5607.0,2.0,2.0,Who is holding the umbrella in the scene?,11.0,2.0,,,,,0.4,0.5,0.3333333333333333,6.0,2.0,4.0,0.86848204,-0.76972904,1.3737290961395456,0.16966197330334568,-0.8552371452251307,-0.6641285134842092,0.881778820114296,-1.1616251358524872,0.1127389723827171,-0.541539770587311
Encode-Decode_Experiment-1-1,2349475,encoding,1.168152,0.291667,0.184917,0.091384,24,7,False,0.089086,0.054041,15,21,37,36,0.973,0.070533,0.704672,1.0,4998.0,3.0,3.0,Which part of the blender is the woman holding?,0.0,14841.0,2.0,1.0,What is the man doing to power the blender?,12.0,1.0,,,,,0.6,0.5,0.5384615384615384,12.0,5.0,7.0,1.34448224,-0.17633023999999997,1.2723044603624847,0.14645571126562063,-0.11954443967552962,-0.15213917377147915,0.525785792089579,-1.5405453310845412,-0.28518686511002583,0.0016083997498870018
Encode-Decode_Experiment-1-1,2394020,encoding,1.776663,0.615385,0.351692,0.14842,13,8,False,0.183927,0.232903,24,3,33,27,0.8182,0.211957,0.768176,1.0,11365.0,1.0,1.0,Where is the scene taking place?,1.0,3777.0,2.0,2.0,What are the riders wearing on their heads?,13.0,2.0,,,,,0.3,0.14285714285714285,0.3333333333333333,6.0,1.0,4.0,1.87165164,-0.09498863999999996,1.0342693856012917,0.1998541134594599,0.2990805112985159,-0.0819569757704434,-0.18620026395985498,0.20796712292544378,0.3227444838961362,0.6031440610117066
Encode-Decode_Experiment-1-1,2362704,encoding,-0.792589,0.045455,0.099455,0.068131,22,1,False,0.209003,0.157402,2,24,28,26,0.9286,0.175742,0.817612,1.0,4644.0,4.0,4.0,What are the bears doing with the pumpkins?,1.0,3040.0,2.0,2.0,How many bears are in the scene?,16.0,2.0,,,,,0.6666666666666666,0.2,0.7142857142857143,6.0,1.0,5.0,0.28402952,-1.07661852,0.9964806795304295,0.21728616172690426,-1.4684355936526985,-0.9289152677378125,-1.0761828340216475,-0.23978133930141723,0.7960011948036168,-1.2084393157702005
Encode-Decode_Experiment-1-1,2385550,encoding,2.217431,0.391304,0.199174,0.086646,23,9,False,0.279624,0.292266,19,13,34,32,0.9412,0.305476,0.844353,1.0,6081.0,3.0,3.0,Which side of the frame is the boy on? (from your perspective),1.0,4534.0,4.0,4.0,Where are the tangerines in the scene?,17.0,2.0,,,,,0.5555555555555556,0.75,0.5,10.0,3.0,7.0,1.82361632,0.39381468,1.3291001612144937,0.2042747449101898,0.6023067182050929,0.33978652801856035,-0.008203749947496489,1.364200408552776,1.0519959699953179,0.5483325374670487
Encode-Decode_Experiment-1-1,2410309,encoding,2.29324,0.36,0.16272,0.086027,25,9,False,0.292115,0.298995,17,17,36,34,0.9444,0.285861,0.712776,1.0,3857.0,2.0,2.0,What is the baby touching?,1.0,3350.0,4.0,4.0,How many laptops or electronic devices are visible?,20.0,2.0,,,,,0.47058823529411764,0.2857142857142857,0.5,8.0,2.0,6.0,0.21159204000000004,2.0816479599999997,0.9293689629549485,0.2249985373471005,0.6544594959007983,1.7960628915237973,0.3477892780772205,1.1216880217909395,-0.20760630873017674,-1.291095341389176
Encode-Decode_Experiment-1-1,2356125,encoding,1.7459,0.32,0.18104,0.079592,25,8,False,0.342058,0.22663,18,15,34,33,0.9706,0.284523,0.795761,1.0,3847.0,2.0,2.0,How many uniformed staff are moving the luggage?,1.0,5075.0,1.0,1.0,Where is the luggage being moved to?,22.0,2.0,,,,,0.7,0.5714285714285714,0.6923076923076923,14.0,4.0,9.0,0.6789982499999999,1.06690175,0.937328047915491,0.2935832474587162,0.27791711512849665,0.920531559081104,-0.008203749947496489,1.105145499563699,0.5868189715242388,-0.7577534903442729
Encode-Decode_Experiment-1-1,2348899,encoding,4.591028,0.75,0.2456,0.109866,20,15,False,0.217957,0.119061,28,4,32,32,1.0,0.205595,0.857242,1.0,5228.0,4.0,4.0,What is the woman doing?,1.0,9034.0,1.0,1.0,Where is the woman located relative to the man? (from your perspective),23.0,2.0,,,,,0.6086956521739131,0.6666666666666666,0.5882352941176471,14.0,4.0,10.0,3.18626444,1.4047635599999997,1.4031198497847597,0.13863135122977524,2.235222027471715,1.2120414930682433,-0.3641967779722135,0.12930977882252254,1.175383900792439,2.103205483300732
Encode-Decode_Experiment-1-1,2350974,encoding,4.20909,0.736842,0.259579,0.113389,19,14,False,0.272914,0.241189,26,5,38,31,0.8158,0.278012,0.805987,1.0,5186.0,4.0,4.0,Between which two objects is the child standing?,1.0,8762.0,1.0,1.0,What is the child up against?,24.0,2.0,,,,,0.5833333333333334,0.5,0.5,7.0,2.0,5.0,1.8882654,2.3208246,1.2442143057663109,0.38083073836292586,1.972467900553508,2.0024264534122094,0.7037823061019375,1.0246459762291935,0.6847136864230954,0.6221014760430896
Encode-Decode_Experiment-1-1,2383555,encoding,-0.030115,0.2,0.2028,0.092978,25,5,False,0.211438,0.14111,10,23,34,33,0.9706,0.165578,0.809704,0.0,7759.0,3.0,2.0,Who is holding the child in the boat?,1.0,4709.0,4.0,4.0,What is the woman at the back doing in the boat?,26.0,1.0,,,,,0.5238095238095238,0.4,0.6363636363636364,11.0,4.0,7.0,0.16603777272727271,-0.19615277272727272,0.9647251812359597,0.2505405411716091,-0.943891845275127,-0.16924221719264945,-0.008203749947496489,-0.36544516285723166,0.7202969697478605,-1.3430758172802229
Encode-Decode_Experiment-1-1,2409918,encoding,2.408731,0.473684,0.224211,0.103571,19,9,False,0.169894,0.098334,25,10,35,35,1.0,0.149448,0.673408,1.0,9968.0,4.0,4.0,Where are the elephants in the scene?,1.0,6438.0,2.0,2.0,What is the elephant on the right (from your perspective) doing with its trunk?,27.0,2.0,,,,,0.625,0.6666666666666666,0.6,10.0,4.0,6.0,2.23749776,0.17123323999999984,1.4036877302463346,0.13678792892649555,0.7339114930100429,0.14774144046882362,0.16979276406486202,-0.564870337390416,-0.5844808575408746,1.0205990341460938
Encode-Decode_Experiment-1-1,2347400,encoding,0.212464,0.222222,0.199444,0.107208,18,4,False,0.198821,0.245429,9,18,30,27,0.9,0.241136,0.838603,1.0,3779.0,3.0,3.0,What are the men doing with the wine?,1.0,2865.0,1.0,1.0,What are the men sitting on in the scene?,31.0,2.0,,,,,0.5,0.375,0.5,10.0,3.0,6.0,0.9532147599999999,-0.74075076,1.0825798670335782,0.14817733206914757,-0.777009698555786,-0.6391258164055994,-0.7201898059969305,0.5687251618407433,0.9969505357425865,-0.44485405105254167
Encode-Decode_Experiment-1-1,2408717,encoding,1.46445,0.363636,0.219955,0.098113,22,8,False,0.193703,0.220917,21,11,37,32,0.8649,0.207272,0.702414,1.0,2675.0,2.0,2.0,How many surfers are in the scene?,1.0,4633.0,3.0,3.0,What are the surfers doing with the surfboards?,32.0,2.0,,,,,0.5,0.2857142857142857,0.5555555555555556,8.0,2.0,5.0,0.5013781199999999,0.9630718800000001,0.7617959056815633,0.17980747806102687,0.0842936761904247,0.8309462977294488,0.525785792089579,0.1500435678920918,-0.3068029678130981,-0.960429977926747
Encode-Decode_Experiment-1-1,2386442,encoding,2.947547,0.769231,0.331385,0.148546,13,10,False,0.136657,0.144387,33,3,37,36,0.973,0.134292,0.850836,1.0,6336.0,3.0,3.0,What is the person on the right wearing?,1.0,6401.0,1.0,1.0,Who is brushing their teeth in the scene?,33.0,2.0,,,,,0.3888888888888889,0.3333333333333333,0.38461538461538464,7.0,2.0,5.0,2.808329,0.13921800000000006,1.4245428094218986,0.2774649513164166,1.104589790664533,0.12011842945440217,0.525785792089579,-0.752253347013785,1.1140585004753971,1.6719557847888746
Encode-Decode_Experiment-1-1,2385851,encoding,0.29707,0.12,0.1012,0.063285,25,3,False,0.16401,0.12087,6,22,31,28,0.9032,0.15682,0.897408,1.0,6572.0,3.0,3.0,Where are the men?,1.0,3877.0,2.0,2.0,What are the men doing with the suitcases?,35.0,2.0,,,,,0.3125,0.14285714285714285,0.4444444444444444,5.0,1.0,4.0,-0.3014092272727273,0.5984792272727273,0.884229601566618,0.18298126367784998,-0.7188050274781719,0.5163727739306998,-0.542193291984572,-0.47372573809353863,1.5598977985655165,-1.8764642124523512
Encode-Decode_Experiment-1-1,2344622,encoding,0.018231,0.333333,0.330417,0.159986,12,4,False,0.169364,0.246224,9,10,24,19,0.7917,0.254556,0.594668,1.0,3713.0,4.0,4.0,What is the cat resting its head on?,1.0,8759.0,2.0,2.0,Where is the cat located?,37.0,2.0,,,,,0.42857142857142855,0.4,0.4,6.0,2.0,4.0,0.570194875,-0.551963875,1.119020083695564,0.224707736831677,-0.9106322297878291,-0.47623894741029116,-1.7881688900710815,0.7346449288733122,-1.3382682476382735,-0.8819054425026165
Encode-Decode_Experiment-1-1,2411268,encoding,2.743085,0.6,0.2838,0.115272,20,12,False,0.159698,0.437671,23,8,32,31,0.9688,0.234453,0.856618,0.0,9988.0,1.0,4.0,Where is the fruit branch relative to the child?,1.0,7151.0,2.0,2.0,What is the child holding while picking fruit?,38.0,1.0,,,,,0.4444444444444444,0.3333333333333333,0.42857142857142855,8.0,2.0,6.0,1.9073307727272728,0.8357542272727274,1.2391389727298137,0.26263048542262296,0.9639302221011787,0.7210955852682659,-0.3641967779722135,0.4860990960375648,1.169410274536143,0.6438563457125034
Encode-Decode_Experiment-1-1,2345035,encoding,-0.53349,0.25,0.305964,0.104902,28,7,False,0.234224,0.247613,15,21,41,36,0.878,0.23046,0.754701,1.0,6065.0,3.0,3.0,What are the people doing with the football?,1.0,5287.0,2.0,2.0,Who runs toward the football in the scene?,42.0,2.0,,,,,0.38095238095238093,0.2,0.4666666666666667,8.0,1.0,7.0,0.49328904,-1.02677904,1.24529052422522,0.2321196304141944,-1.2901885181315917,-0.8859133566169513,1.237771848139013,0.43673116535492346,0.19374670536473593,-0.9696601610269036
Encode-Decode_Experiment-1-1,2370664,encoding,4.605735,0.555556,0.141389,0.089924,18,10,False,0.144682,0.152652,28,12,40,40,1.0,0.147073,0.831096,1.0,3329.0,1.0,1.0,Where are the people located in the scene?,1.0,3201.0,4.0,4.0,How many donuts are in the scene?,45.0,2.0,,,,,0.7,0.5714285714285714,0.6428571428571429,14.0,4.0,9.0,1.0494850833333333,3.556249916666667,1.432874922145287,0.23109694308114348,2.2453397034939653,3.0683615246401206,1.0597753341266545,-0.5942339325247192,0.9250851314060206,-0.3350031518800823
Encode-Decode_Experiment-1-1,2367132,encoding,2.469503,0.380952,0.154952,0.091516,21,8,False,0.120313,0.081787,21,15,37,36,0.973,0.103802,0.805345,1.0,4443.0,4.0,4.0,In which hand(s) are the men holding the controllers?,1.0,3240.0,2.0,2.0,How many men are playing in the scene?,46.0,2.0,,,,,0.5,0.6,0.4444444444444444,11.0,3.0,8.0,3.3087804166666666,-0.8392774166666666,1.3768064008305572,0.1544481949671963,0.7757195712873374,-0.724135421903402,0.525785792089579,-1.12922009044322,0.6785677440247901,2.243004434149019
Encode-Decode_Experiment-10-1,2362704,encoding,1.880256,0.333333,0.182967,0.079971,30,10,False,0.248115,0.1542,17,17,35,34,0.9714,0.199018,0.798937,1.0,4528.0,4.0,4.0,What are the bears doing with the pumpkins?,1.0,2438.0,2.0,2.0,How many bears are in the scene?,1.0,2.0,,,,,0.3333333333333333,0.2,0.2857142857142857,3.0,1.0,2.0,0.28402952,1.59622648,0.9964806795304295,0.21728616172690426,0.37034728305162185,1.377237266956346,0.16979276406486202,0.04799425663375918,0.6172231974697469,-1.2084393157702005
Encode-Decode_Experiment-10-1,150472,encoding,-0.859561,0.15,0.24775,0.113721,20,3,False,0.087219,0.075484,5,23,31,28,0.9032,0.092926,0.550391,1.0,3338.0,2.0,2.0,Where is the pizza slice located?,1.0,2893.0,4.0,4.0,How many women are in the scene?,2.0,2.0,,,,,0.5625,0.75,0.6,9.0,3.0,6.0,1.150756347826087,-2.0103173478260867,1.4947937518299248,0.18270380898651734,-1.514508959979082,-1.7345182557270504,-0.542193291984572,-1.2636868107298236,-1.7621372376223035,-0.2194458432550575
Encode-Decode_Experiment-10-1,2370664,encoding,-0.010006,0.214286,0.2155,0.121359,14,3,False,0.069476,0.126217,6,16,26,22,0.8462,0.122232,0.706266,1.0,3833.0,1.0,1.0,Where are the people located in the scene?,0.0,2566.0,3.0,4.0,How many donuts are in the scene?,4.0,1.0,,,,,0.25,0.14285714285714285,0.21428571428571427,5.0,1.0,3.0,1.0494850833333333,-1.0594910833333333,1.432874922145287,0.23109694308114348,-0.9300578650526873,-0.9141375752484812,-1.4321758620463645,-0.9013585922010263,-0.2699273134232689,-0.3350031518800823
Encode-Decode_Experiment-10-1,2379478,encoding,0.921081,0.35,0.2475,0.111282,20,7,False,0.319026,0.389875,18,12,31,30,0.9677,0.355879,0.739957,1.0,2007.0,2.0,2.0,How many babies are visible in the scene?,1.0,5045.0,4.0,4.0,What is the position of the babies?,5.0,2.0,,,,,0.0,0.0,0.0,0.0,0.0,0.0,2.318576956521739,-1.3974959565217389,1.1559328518651655,0.2577925144752665,-0.2895168563814042,-1.205770945325092,-0.542193291984572,1.9873638972072136,0.05260063882173329,1.1131158382213704
Encode-Decode_Experiment-10-1,2412687,encoding,0.594297,0.416667,0.326083,0.152421,12,5,False,0.123179,0.199847,12,4,28,16,0.5714,0.119551,0.495169,1.0,3895.0,3.0,3.0,What is the human's body position?,1.0,3399.0,4.0,4.0,What is the dog biting onto in the scene?,6.0,2.0,,,,,0.0,0.0,0.0,0.0,0.0,0.0,1.392583090909091,-0.7982860909090911,1.121179392943873,0.2673871939639434,-0.5143278063545395,-0.6887677706567691,-1.0761828340216475,-0.9345054547505282,-2.290784015066531,0.05649469845928904
Encode-Decode_Experiment-10-1,2347025,encoding,0.508345,0.52381,0.460143,0.125243,21,11,False,0.125089,0.154398,28,6,34,34,1.0,0.130261,0.726219,1.0,3994.0,1.0,1.0,Where is the baby in relation to the mother?,0.0,4496.0,3.0,2.0,Who is holding the umbrella in the scene?,7.0,1.0,,,,,0.5333333333333333,0.5,0.5,8.0,2.0,6.0,0.86848204,-0.3601370399999999,1.3737290961395456,0.16966197330334568,-0.5734584577086171,-0.3107291846827075,-0.008203749947496489,-0.8020910952185752,-0.078914870006792,-0.541539770587311
Encode-Decode_Experiment-10-1,2356125,encoding,2.47984,0.5,0.243727,0.103342,22,11,False,0.235264,0.258587,25,10,37,35,0.9459,0.249079,0.723037,1.0,2514.0,1.0,1.0,Where is the luggage being moved to?,1.0,3297.0,2.0,2.0,How many uniformed staff are moving the luggage?,8.0,2.0,,,,,0.45,0.42857142857142855,0.46153846153846156,9.0,3.0,6.0,0.6789982499999999,1.80084175,0.937328047915491,0.2935832474587162,0.7828309071846647,1.5537809960343993,0.525785792089579,0.6669293875888577,-0.10937653466630244,-0.7577534903442729
Encode-Decode_Experiment-10-1,2350974,encoding,2.945957,0.8,0.3145,0.164802,10,8,False,0.256598,,19,0,25,19,0.76,0.238674,0.798864,1.0,2261.0,1.0,1.0,What is the child up against?,1.0,4270.0,4.0,4.0,Between which two objects is the child standing?,9.0,2.0,,,,,0.0,0.0,0.0,0.0,0.0,0.0,1.8882654,1.0576915999999998,1.2442143057663109,0.38083073836292586,1.1034959506648472,0.9125849663054609,-1.610172376058723,0.5382859318530993,0.6165243597827123,0.6221014760430896
Encode-Decode_Experiment-10-1,2383555,encoding,0.816161,0.285714,0.199952,0.10508,21,6,False,0.302928,0.158923,10,16,32,26,0.8125,0.204814,0.737815,1.0,3491.0,2.0,2.0,Who is holding the child in the boat?,1.0,4016.0,4.0,4.0,What is the woman at the back doing in the boat?,10.0,2.0,,,,,0.3333333333333333,0.2,0.45454545454545453,7.0,2.0,5.0,0.16603777272727271,0.6501232272727273,0.9647251812359597,0.2505405411716091,-0.3616965373669523,0.5609316396717904,-0.3641967779722135,0.11965379238046317,0.03209501792271614,-1.3430758172802229
Encode-Decode_Experiment-10-1,2369373,encoding,2.615965,0.777778,0.427389,0.133942,18,14,False,0.261421,0.402052,24,1,26,25,0.9615,0.261874,0.668599,1.0,4815.0,3.0,3.0,What is the appearance of the oven?,1.0,4239.0,3.0,3.0,What tool is the chef using?,11.0,2.0,,,,,0.4666666666666667,0.25,0.5,7.0,1.0,6.0,1.0857792916666666,1.5301857083333334,1.1744307155537281,0.30599341805477037,0.8764780581011512,1.3202567488296901,-1.4321758620463645,0.8251218927439781,-0.6305179868141583,-0.29358902463793607
Encode-Decode_Experiment-10-1,2385550,encoding,0.843475,0.388889,0.287722,0.11994,18,7,False,0.276524,0.262302,14,14,32,28,0.875,0.277336,0.798275,1.0,4548.0,3.0,3.0,Which side of the frame is the boy on? (from your perspective),1.0,3141.0,4.0,4.0,Where are the tangerines in the scene?,13.0,2.0,,,,,0.8333333333333334,0.75,0.8571428571428571,15.0,3.0,12.0,1.82361632,-0.98014132,1.3291001612144937,0.2042747449101898,-0.3429058796616601,-0.8456739502202628,-0.3641967779722135,1.016288169782546,0.610885792691432,0.5483325374670487
Encode-Decode_Experiment-10-1,2348899,encoding,4.18893,0.608696,0.217739,0.093331,23,14,False,0.201666,0.175792,22,6,28,28,1.0,0.196122,0.821473,1.0,6102.0,1.0,1.0,Where is the woman located relative to the man? (from your perspective),1.0,3203.0,4.0,4.0,What is the woman doing?,14.0,2.0,,,,,0.5652173913043478,0.5,0.5882352941176471,13.0,3.0,10.0,3.18626444,1.00266556,1.4031198497847597,0.13863135122977524,1.9585988348971162,0.8651080487811819,-1.0761828340216475,0.012189215998414878,0.8329630072644506,2.103205483300732
Encode-Decode_Experiment-10-1,2411268,encoding,0.473765,0.461538,0.388769,0.153598,13,6,False,0.243625,0.288897,16,9,26,25,0.9615,0.264995,0.808185,1.0,6114.0,4.0,4.0,Where is the fruit branch relative to the child?,0.0,23799.0,1.0,2.0,What is the child holding while picking fruit?,15.0,1.0,,,,,0.5555555555555556,0.6666666666666666,0.35714285714285715,10.0,4.0,5.0,1.9073307727272728,-1.4335657727272728,1.2391389727298137,0.26263048542262296,-0.5972477578275673,-1.2368922778633966,-1.4321758620463645,0.8637087476552034,0.7057554019861396,0.6438563457125034
Encode-Decode_Experiment-10-1,2387122,encoding,-0.136416,0.421053,0.439421,0.13465,19,8,False,0.179375,0.28172,13,11,24,24,1.0,0.226283,0.76657,1.0,4071.0,3.0,3.0,Where is the polar bear located in the scene?,1.0,3613.0,1.0,1.0,What is the polar bear doing next to the enclosure edge?,17.0,2.0,,,,,0.4117647058823529,0.4,0.4166666666666667,7.0,2.0,5.0,0.95913252,-1.0955485200000001,0.8077495096045205,0.1703801241070615,-1.0170215847761255,-0.9452482266193641,-1.7881688900710815,0.38508832877556154,0.3073700547813734,-0.4381014897794693
Encode-Decode_Experiment-10-1,2349475,encoding,0.821209,0.153846,0.084154,0.084866,13,2,False,0.065656,0.09436,3,20,25,23,0.92,0.088054,0.728617,1.0,2724.0,3.0,3.0,Which part of the blender is the woman holding?,1.0,3992.0,1.0,1.0,What is the man doing to power the blender?,18.0,2.0,,,,,0.75,0.6,0.6923076923076923,15.0,6.0,9.0,1.34448224,-0.5232732400000001,1.2723044603624847,0.14645571126562063,-0.35822376735537165,-0.45148443279113637,-1.610172376058723,-1.323922362516908,-0.055958530643652936,0.0016083997498870018
Encode-Decode_Experiment-10-1,2410309,encoding,0.661148,0.263158,0.192158,0.107389,19,5,False,0.287865,0.226602,11,15,26,26,1.0,0.252521,0.747623,1.0,5188.0,2.0,2.0,What is the baby touching?,1.0,3019.0,4.0,4.0,How many laptops or electronic devices are visible?,20.0,2.0,,,,,0.7647058823529411,0.7142857142857143,0.6666666666666666,13.0,5.0,8.0,0.21159204000000004,0.4495559599999999,0.9293689629549485,0.2249985373471005,-0.468337681940082,0.3878805604667931,-1.4321758620463645,0.7094849642003406,0.12598816907937493,-1.291095341389176
Encode-Decode_Experiment-10-1,2344622,encoding,-0.988013,0.25,0.386562,0.138219,16,4,False,0.153564,0.260008,8,17,31,25,0.8065,0.256139,0.628466,1.0,3365.0,4.0,4.0,What is the cat resting its head on?,1.0,4642.0,2.0,2.0,Where is the cat located?,22.0,2.0,,,,,0.6428571428571429,0.6,0.6,9.0,3.0,6.0,0.570194875,-1.558207875,1.119020083695564,0.224707736831677,-1.602877472959978,-1.344434503501568,-0.542193291984572,0.7542165377565131,-1.0147159716602208,-0.8819054425026165
Encode-Decode_Experiment-10-1,2397102,encoding,1.887584,0.5,0.27925,0.116948,20,10,False,0.116305,0.084022,27,5,34,32,0.9412,0.105677,0.581779,1.0,2309.0,1.0,1.0,What are the couple doing with the cake?,1.0,3756.0,3.0,3.0,What is the man holding besides the cake knife?,23.0,2.0,,,,,0.0,0.0,0.0,0.0,0.0,0.0,2.27765524,-0.39007124000000015,1.2432531819164083,0.23108201096190967,0.3753885783457707,-0.3365566573584678,-0.008203749947496489,-1.1060383048108755,-1.4616561784353945,1.066421413605919
Encode-Decode_Experiment-10-1,2409918,encoding,-0.195526,0.352941,0.379176,0.134178,17,6,False,0.170519,0.124303,16,10,35,26,0.7429,0.131688,0.710561,1.0,5345.0,4.0,4.0,Where are the elephants in the scene?,1.0,3997.0,2.0,2.0,What is the elephant on the right (from your perspective) doing with its trunk?,24.0,2.0,,,,,0.6875,0.6666666666666666,0.6,11.0,4.0,6.0,2.23749776,-2.43302376,1.4036877302463346,0.13678792892649555,-1.05768629067639,-2.099232806651756,0.16979276406486202,-0.7844482108999853,-0.22881076731622846,1.0205990341460938
Encode-Decode_Experiment-10-1,2374670,encoding,0.029488,0.714286,0.709929,0.14776,14,10,False,0.17199,0.258162,17,7,28,24,0.8571,0.215653,0.79496,1.0,4770.0,1.0,1.0,What vehicle sprays water in the scene?,1.0,5684.0,3.0,3.0,Where is the man standing relative to the vehicle?,25.0,2.0,,,,,0.3684210526315789,0.42857142857142855,0.36363636363636365,7.0,3.0,4.0,1.4215436399999999,-1.39205564,0.9526515902668666,0.18897085580323902,-0.9028879801799916,-1.2010769957185317,-1.0761828340216475,0.2536630587639218,0.5791509032048578,0.08954062837841037
Encode-Decode_Experiment-10-1,2360001,encoding,2.026076,0.285714,0.104571,0.089406,14,4,False,0.261531,0.219258,9,14,23,23,1.0,0.235799,0.56848,1.0,4442.0,4.0,4.0,Where are the men standing?,1.0,3459.0,4.0,4.0,What are the workers doing to the clock?,27.0,2.0,,,,,0.0,0.0,0.0,0.0,0.0,0.0,1.4038728,0.6222032000000002,1.2583315202774465,0.20068632240389478,0.4706641061674496,0.536842011704688,-1.96616540408344,0.5027405272168375,-1.5889690880227116,0.06937701413135482
Encode-Decode_Experiment-10-1,2347400,encoding,0.444285,0.4,0.3264,0.165659,10,4,False,0.138936,0.267598,21,11,37,32,0.8649,0.188872,0.716603,1.0,2603.0,1.0,1.0,What are the men sitting on in the scene?,1.0,4788.0,3.0,3.0,What are the men doing with the wine?,29.0,2.0,,,,,0.45,0.375,0.5,9.0,3.0,6.0,0.9532147599999999,-0.50892976,1.0825798670335782,0.14817733206914757,-0.6175285145512992,-0.43910876089159295,0.525785792089579,-0.0774470217799845,-0.17096998231535884,-0.44485405105254167
Encode-Decode_Experiment-10-1,2408717,encoding,-0.059029,0.222222,0.228778,0.111057,18,4,False,0.157241,0.270898,12,12,28,24,0.8571,0.215179,0.81515,1.0,3635.0,2.0,2.0,How many surfers are in the scene?,1.0,2977.0,3.0,3.0,What are the surfers doing with the surfboards?,30.0,2.0,,,,,0.8125,0.42857142857142855,1.0,13.0,3.0,9.0,0.5013781199999999,-0.5604071199999999,0.7617959056815633,0.17980747806102687,-0.9637832224769585,-0.4835238482772676,-1.0761828340216475,0.24780270335606502,0.7724321758244477,-0.960429977926747
Encode-Decode_Experiment-10-1,2394020,encoding,1.732468,0.8,0.4745,0.187882,10,8,False,0.252803,,15,0,19,15,0.7895,0.247894,0.772973,1.0,3488.0,1.0,1.0,Where is the scene taking place?,1.0,3246.0,2.0,2.0,What are the riders wearing on their heads?,33.0,2.0,,,,,0.0,0.0,0.0,0.0,0.0,0.0,1.87165164,-0.13918364000000016,1.0342693856012917,0.1998541134594599,0.26867657495505126,-0.12008878336527543,-2.6781514601328738,0.6522784990692159,0.36866673574141506,0.6031440610117066
Encode-Decode_Experiment-10-1,2356991,encoding,2.220155,0.5,0.238,0.11801,16,8,False,0.128548,0.042288,20,10,31,30,0.9677,0.102377,0.612357,1.0,5505.0,2.0,2.0,What is the current action of the gloved player on the base?,1.0,6324.0,1.0,1.0,How is the player on the left (from your perspective) reaching the base?,36.0,2.0,,,,,0.3125,0.2857142857142857,0.3,5.0,2.0,3.0,0.9599711999999999,1.2601838,1.1299679288759703,0.23763702187720387,0.6041806931479508,1.0872968932169718,-0.542193291984572,-1.1468382475238021,-1.1689293456388712,-0.4371444996195947
Encode-Decode_Experiment-10-1,2386442,encoding,-0.711952,0.545455,0.667818,0.171871,11,6,False,0.129535,0.134756,13,7,20,20,1.0,0.131362,0.841512,1.0,4429.0,3.0,3.0,What is the person on the right wearing?,1.0,4695.0,1.0,1.0,Who is brushing their teeth in the scene?,37.0,2.0,,,,,0.2222222222222222,0.16666666666666666,0.23076923076923078,4.0,1.0,3.0,2.808329,-3.520281,1.4245428094218986,0.2774649513164166,-1.4129613948761865,-3.037327249049491,-2.5001549461205155,-0.7884787506952622,1.0247987389149686,1.6719557847888746
Encode-Decode_Experiment-10-1,2345035,encoding,-0.090433,0.277778,0.289611,0.130852,18,5,False,0.17469,0.20841,12,14,40,26,0.65,0.167931,0.778927,0.0,3175.0,2.0,3.0,What are the people doing with the football?,1.0,6623.0,2.0,2.0,Who runs toward the football in the scene?,41.0,1.0,,,,,0.5238095238095238,0.4,0.6,11.0,2.0,9.0,0.49328904,-0.58372204,1.24529052422522,0.2321196304141944,-0.9853875943952786,-0.5036401520113756,1.0597753341266545,-0.33635356734101457,0.42566508627024313,-0.9696601610269036
Encode-Decode_Experiment-10-1,2371471,encoding,1.413843,0.4,0.1956,0.144571,10,4,False,0.148076,0.373248,31,14,45,45,1.0,0.218129,0.673644,1.0,7062.0,2.0,2.0,What stunt is one motorcyclist performing?,1.0,4367.0,3.0,3.0,What is nearest to the motorcyclists?,42.0,2.0,,,,,0.4,0.6,0.3333333333333333,8.0,3.0,5.0,1.6010008636363637,-0.18715786363636377,1.2530896461688035,0.21932342966135415,0.04947860646457988,-0.1614813360344292,1.949757904188447,0.2842753794176205,-0.5822216014567624,0.29431336307869904
Encode-Decode_Experiment-10-1,2385851,encoding,-0.674388,0.133333,0.215067,0.121196,15,2,False,0.367904,0.224178,6,13,30,19,0.6333,0.33537,0.885848,1.0,5412.0,3.0,3.0,Where are the men?,1.0,2633.0,2.0,2.0,What are the men doing with the suitcases?,46.0,2.0,,,,,0.4375,0.2857142857142857,0.5555555555555556,7.0,2.0,5.0,-0.3014092272727273,-0.3729787727272727,0.884229601566618,0.18298126367784998,-1.3871192528961909,-0.32180913674833983,-0.7201898059969305,1.733798435055876,1.449232542920026,-1.8764642124523512
Encode-Decode_Experiment-10-1,2367132,encoding,2.837132,0.5,0.165167,0.118018,12,6,False,0.105676,0.034278,11,11,22,22,1.0,0.069977,0.696052,1.0,2315.0,2.0,2.0,How many men are playing in the scene?,0.0,7330.0,1.0,4.0,In which hand(s) are the men holding the controllers?,55.0,1.0,,,,,0.5,0.6,0.4444444444444444,11.0,3.0,8.0,3.3087804166666666,-0.47164841666666657,1.3768064008305572,0.1544481949671963,1.0286298261580584,-0.4069421128349454,-2.1441619180957985,-1.547419503250719,-0.36770715089411965,2.243004434149019
Encode-Decode_Experiment-11-1,2370664,encoding,0.697606,0.153846,0.108385,0.065168,26,4,False,0.15941,0.163214,9,25,34,34,1.0,0.162207,0.805027,1.0,2788.0,4.0,4.0,How many donuts are in the scene?,1.0,3789.0,1.0,1.0,Where are the people located in the scene?,1.0,2.0,,,,,0.35,0.2857142857142857,0.2857142857142857,7.0,2.0,4.0,1.0494850833333333,-0.3518790833333334,1.432874922145287,0.23109694308114348,-0.44325641231206914,-0.303604152105724,-0.008203749947496489,-0.40712292251943666,0.6755234921826397,-0.3350031518800823
Encode-Decode_Experiment-11-1,2356125,encoding,1.642844,0.4,0.24756,0.09279,25,10,False,0.290167,0.261904,18,12,37,30,0.8108,0.29884,0.754848,0.0,2916.0,4.0,2.0,How many uniformed staff are moving the luggage?,1.0,3095.0,1.0,1.0,Where is the luggage being moved to?,2.0,1.0,,,,,0.45,0.42857142857142855,0.46153846153846156,9.0,3.0,6.0,0.6789982499999999,0.9638457500000001,0.937328047915491,0.2935832474587162,0.20701977235641653,0.8316139990971015,0.525785792089579,1.2821554328427809,0.19515395385780582,-0.7577534903442729
Encode-Decode_Experiment-11-1,2344622,encoding,-0.812151,0.16,0.23684,0.094613,25,4,False,0.21429,0.20509,8,22,36,30,0.8333,0.229643,0.619524,1.0,3551.0,4.0,4.0,What is the cat resting its head on?,1.0,4489.0,2.0,2.0,Where is the cat located?,3.0,2.0,,,,,0.5,0.4,0.5,7.0,2.0,5.0,0.570194875,-1.382345875,1.119020083695564,0.224707736831677,-1.4818932653972592,-1.1926993310331366,0.3477892780772205,0.4266300886287233,-1.1003188017624679,-0.8819054425026165
Encode-Decode_Experiment-11-1,2360001,encoding,1.051911,0.214286,0.137321,0.073166,28,6,False,0.150861,0.28008,13,22,35,35,1.0,0.232084,0.453119,1.0,3527.0,4.0,4.0,What are the workers doing to the clock?,0.0,4447.0,2.0,4.0,Where are the men standing?,5.0,1.0,,,,,0.45,0.42857142857142855,0.5454545454545454,9.0,3.0,6.0,1.4038728,-0.3519618,1.2583315202774465,0.20068632240389478,-0.19951239904877685,-0.3036755207224955,0.16979276406486202,0.45680968261728516,-2.6933336690365035,0.06937701413135482
Encode-Decode_Experiment-11-1,150472,encoding,-0.525739,0.217391,0.272826,0.105442,23,5,False,0.091957,0.093667,11,16,29,27,0.931,0.10335,0.570988,1.0,4609.0,2.0,2.0,Where is the pizza slice located?,1.0,2436.0,4.0,4.0,How many women are in the scene?,6.0,2.0,,,,,0.4375,0.25,0.6,7.0,1.0,6.0,1.150756347826087,-1.676495347826087,1.4947937518299248,0.18270380898651734,-1.2848562201205453,-1.446493902860845,-0.898186320009289,-1.1348084462329906,-1.56495970556952,-0.2194458432550575
Encode-Decode_Experiment-11-1,2362704,encoding,0.174253,0.153846,0.141192,0.072618,26,4,False,0.206413,0.164435,7,23,30,30,1.0,0.17423,0.791643,1.0,3273.0,4.0,4.0,What are the bears doing with the pumpkins?,1.0,2147.0,2.0,2.0,How many bears are in the scene?,7.0,2.0,,,,,0.5555555555555556,0.2,0.5714285714285714,5.0,1.0,4.0,0.28402952,-0.10977651999999999,0.9964806795304295,0.21728616172690426,-0.8032969439821945,-0.09471607962598053,-0.7201898059969305,-0.2584751312353402,0.5473968674802823,-1.2084393157702005
Encode-Decode_Experiment-11-1,2367132,encoding,3.730474,0.35,0.0866,0.070608,20,7,False,0.089679,0.110717,19,14,34,33,0.9706,0.098292,0.792043,1.0,5518.0,4.0,4.0,In which hand(s) are the men holding the controllers?,1.0,2338.0,2.0,2.0,How many men are playing in the scene?,8.0,2.0,,,,,0.5454545454545454,0.6,0.5,12.0,3.0,9.0,3.3087804166666666,0.4216935833333335,1.3768064008305572,0.1544481949671963,1.6432041739563,0.3638406739142859,-0.008203749947496489,-1.1973436311548038,0.5512261150804729,2.243004434149019
Encode-Decode_Experiment-11-1,2386442,encoding,3.655787,0.703704,0.312148,0.107106,27,19,False,0.113722,0.105171,33,4,37,37,1.0,0.112798,0.790377,0.0,3200.0,4.0,3.0,What is the person on the right wearing?,1.0,4148.0,1.0,1.0,Who is brushing their teeth in the scene?,9.0,1.0,,,,,0.4444444444444444,0.16666666666666666,0.5384615384615384,8.0,1.0,7.0,2.808329,0.847458,1.4245428094218986,0.2774649513164166,1.5918232758075426,0.7311936961353324,0.525785792089579,-1.0179969738839811,0.5352772988256811,1.6719557847888746
Encode-Decode_Experiment-11-1,2347400,encoding,1.436542,0.318182,0.179818,0.096317,22,7,False,0.235781,0.188421,14,14,38,28,0.7368,0.237335,0.815408,1.0,3737.0,3.0,3.0,What are the men doing with the wine?,1.0,2667.0,1.0,1.0,What are the men sitting on in the scene?,11.0,2.0,,,,,0.4,0.125,0.5833333333333334,8.0,1.0,7.0,0.9532147599999999,0.48332724000000005,1.0825798670335782,0.14817733206914757,0.06509437637204231,0.4170186971607901,0.7037823061019375,0.521731046006854,0.7749020405265701,-0.44485405105254167
Encode-Decode_Experiment-11-1,2356991,encoding,0.951975,0.241379,0.166828,0.078313,29,7,False,0.12271,0.17492,14,20,37,34,0.9189,0.14964,0.704777,1.0,6140.0,1.0,1.0,How is the player on the left (from your perspective) reaching the base?,1.0,6431.0,2.0,2.0,What is the current action of the gloved player on the base?,12.0,2.0,,,,,0.375,0.2857142857142857,0.4,6.0,2.0,4.0,0.9599711999999999,-0.007996199999999898,1.1299679288759703,0.23763702187720387,-0.26826333880260583,-0.006899186783341779,0.525785792089579,-0.5624965225416639,-0.28418168761497575,-0.4371444996195947
Encode-Decode_Experiment-11-1,2371471,encoding,1.885618,0.44,0.25408,0.098599,25,11,False,0.261174,0.606556,21,10,31,31,1.0,0.372587,0.715439,0.0,4957.0,1.0,3.0,What is nearest to the motorcyclists?,1.0,6247.0,2.0,2.0,What stunt is one motorcyclist performing?,14.0,1.0,,,,,0.35,0.2,0.3333333333333333,7.0,1.0,5.0,1.6010008636363637,0.2846171363636363,1.2530896461688035,0.21932342966135415,0.3740360692643984,0.24556999393619636,-0.542193291984572,2.193935243524662,-0.18211309283191113,0.29431336307869904
Encode-Decode_Experiment-11-1,2408717,encoding,-0.470886,0.16,0.19976,0.084437,25,4,False,0.350207,0.289281,8,19,34,27,0.7941,0.298228,0.831755,1.0,3767.0,3.0,3.0,What are the surfers doing with the surfboards?,1.0,2533.0,2.0,2.0,How many surfers are in the scene?,16.0,2.0,,,,,0.625,0.14285714285714285,0.8888888888888888,10.0,1.0,8.0,0.5013781199999999,-0.97226412,0.7617959056815633,0.17980747806102687,-1.2471201160307601,-0.8388774376105556,-0.008203749947496489,1.2745888980123836,0.9313938168273342,-0.960429977926747
Encode-Decode_Experiment-11-1,2410309,encoding,-0.011677,0.136364,0.137364,0.085637,22,3,False,0.308537,0.292408,7,24,34,31,0.9118,0.315882,0.74587,1.0,3041.0,4.0,4.0,How many laptops or electronic devices are visible?,1.0,3278.0,2.0,2.0,What is the baby touching?,17.0,2.0,,,,,0.5294117647058824,0.42857142857142855,0.5,9.0,3.0,6.0,0.21159204000000004,-0.22326904000000003,0.9293689629549485,0.2249985373471005,-0.9312074289768852,-0.1926383544555451,-0.008203749947496489,1.4928562279075377,0.10920649147154228,-1.291095341389176
Encode-Decode_Experiment-11-1,2349475,encoding,-0.11116,0.173913,0.184609,0.096219,23,4,False,0.062321,0.052886,7,20,35,27,0.7714,0.078727,0.641324,1.0,4349.0,3.0,3.0,Which part of the blender is the woman holding?,1.0,3378.0,1.0,1.0,What is the man doing to power the blender?,19.0,2.0,,,,,0.6,0.5,0.5384615384615384,12.0,5.0,7.0,1.34448224,-1.45564224,1.2723044603624847,0.14645571126562063,-0.9996467275232566,-1.2559400344516358,0.16979276406486202,-1.4392378369664436,-0.8916248075521134,0.0016083997498870018
Encode-Decode_Experiment-11-1,2385851,encoding,-1.019643,0.086957,0.172261,0.083661,23,2,False,0.158952,0.177844,5,21,32,26,0.8125,0.207879,0.885564,1.0,3774.0,3.0,3.0,Where are the men?,1.0,2739.0,2.0,2.0,What are the men doing with the suitcases?,20.0,2.0,,,,,0.4375,0.2857142857142857,0.5555555555555556,7.0,2.0,5.0,-0.3014092272727273,-0.7182337727272727,0.884229601566618,0.18298126367784998,-1.6246373215071843,-0.6196979755571117,-0.3641967779722135,0.1575482846274695,1.4465137771238914,-1.8764642124523512
Encode-Decode_Experiment-11-1,2387122,encoding,1.141207,0.47619,0.339095,0.120132,21,10,False,0.139046,0.109506,20,5,28,25,0.8929,0.136233,0.754962,1.0,5174.0,3.0,3.0,Where is the polar bear located in the scene?,1.0,4770.0,1.0,1.0,What is the polar bear doing next to the enclosure edge?,21.0,2.0,,,,,0.6470588235294118,0.6,0.6666666666666666,11.0,3.0,8.0,0.95913252,0.18207448000000004,0.8077495096045205,0.1703801241070615,-0.13808124394693252,0.1570953510417256,-1.0761828340216475,-0.7282555625271817,0.19624528942386055,-0.4381014897794693
Encode-Decode_Experiment-11-1,2345035,encoding,0.405641,0.16129,0.131161,0.074275,31,5,False,0.213296,0.22694,7,27,37,34,0.9189,0.213018,0.740913,1.0,3135.0,2.0,2.0,Who runs toward the football in the scene?,1.0,4557.0,3.0,3.0,What are the people doing with the football?,22.0,2.0,,,,,0.42857142857142855,0.2,0.4,9.0,1.0,6.0,0.49328904,-0.08764804000000004,1.24529052422522,0.2321196304141944,-0.6441136421914587,-0.07562344603109236,0.525785792089579,0.2210849226886,0.061752540586188,-0.9696601610269036
Encode-Decode_Experiment-11-1,2397102,encoding,0.749626,0.3,0.22015,0.10652,20,6,False,0.173613,0.169396,16,12,30,28,0.9333,0.165927,0.647086,1.0,3272.0,1.0,1.0,What are the couple doing with the cake?,1.0,4218.0,3.0,3.0,What is the man holding besides the cake knife?,23.0,2.0,,,,,0.47619047619047616,0.4,0.3684210526315789,10.0,2.0,7.0,2.27765524,-1.52802924,1.2432531819164083,0.23108201096190967,-0.4074692696808433,-1.3183961303078886,-0.7201898059969305,-0.3611302598248647,-0.8364644958713762,1.066421413605919
Encode-Decode_Experiment-11-1,2394020,encoding,1.411591,0.75,0.541625,0.147617,16,12,False,0.284873,,20,0,25,20,0.8,0.280133,0.833231,1.0,4892.0,2.0,2.0,What are the riders wearing on their heads?,1.0,2807.0,1.0,1.0,Where is the scene taking place?,27.0,2.0,,,,,0.3,0.14285714285714285,0.3333333333333333,6.0,1.0,4.0,1.87165164,-0.46006064,1.0342693856012917,0.1998541134594599,0.047929343773201225,-0.39694408431802697,-1.610172376058723,1.0508692121365024,0.9455237404720357,0.6031440610117066
Encode-Decode_Experiment-11-1,2374670,encoding,1.722857,0.44,0.25392,0.108007,25,11,False,0.236601,0.256587,19,14,35,33,0.9429,0.242823,0.755836,1.0,4330.0,1.0,1.0,What vehicle sprays water in the scene?,0.0,6666.0,4.0,3.0,Where is the man standing relative to the vehicle?,29.0,1.0,,,,,0.3684210526315789,0.42857142857142855,0.36363636363636365,7.0,3.0,4.0,1.4215436399999999,0.3013133600000002,0.9526515902668666,0.18897085580323902,0.2620646905292784,0.259975632294882,0.16979276406486202,0.5895825871003518,0.20461219543027498,0.08954062837841037
Encode-Decode_Experiment-11-1,2385550,encoding,1.638093,0.285714,0.159679,0.076941,28,8,False,0.232533,0.234815,16,16,34,32,0.9412,0.232809,0.836593,1.0,3325.0,4.0,4.0,Where are the tangerines in the scene?,1.0,5641.0,3.0,3.0,Which side of the frame is the boy on? (from your perspective),30.0,2.0,,,,,0.3333333333333333,0.0,0.42857142857142855,6.0,0.0,6.0,1.82361632,-0.18552331999999994,1.3291001612144937,0.2042747449101898,0.20375132340138094,-0.16007103841145867,-0.008203749947496489,0.4657733063951248,0.9777085665516322,0.5483325374670487
Encode-Decode_Experiment-11-1,2412687,encoding,0.152419,0.357143,0.334429,0.149025,14,5,False,0.098331,0.218764,12,12,29,24,0.8276,0.141215,0.511055,1.0,3151.0,4.0,4.0,What is the dog biting onto in the scene?,1.0,5574.0,3.0,3.0,What is the human's body position?,34.0,2.0,,,,,0.4666666666666667,0.5,0.5555555555555556,7.0,2.0,5.0,1.392583090909091,-1.240164090909091,1.121179392943873,0.2673871939639434,-0.8183176374118404,-1.0700237244159976,-0.898186320009289,-0.6666600126496661,-2.1387054466249857,0.05649469845928904
Encode-Decode_Experiment-11-1,2409918,encoding,0.354383,0.36,0.32392,0.101811,25,9,False,0.147662,0.187722,21,12,35,33,0.9429,0.172968,0.667934,1.0,3977.0,4.0,4.0,Where are the elephants in the scene?,1.0,4189.0,2.0,2.0,What is the elephant on the right (from your perspective) doing with its trunk?,35.0,2.0,,,,,0.6875,0.6666666666666666,0.7,11.0,4.0,7.0,2.23749776,-1.8831147600000002,1.4036877302463346,0.13678792892649555,-0.6793765671624578,-1.6247668222040494,0.16979276406486202,-0.2740780184182835,-0.6368841109494744,1.0205990341460938
Encode-Decode_Experiment-11-1,2347025,encoding,0.686526,0.75,0.6718,0.113907,20,15,False,0.137319,0.055183,30,1,32,31,0.9688,0.13769,0.781332,1.0,4062.0,1.0,1.0,Where is the baby in relation to the mother?,0.0,4582.0,3.0,2.0,Who is holding the umbrella in the scene?,43.0,1.0,,,,,0.6,0.5,0.5833333333333334,9.0,2.0,7.0,0.86848204,-0.18195603999999999,1.3737290961395456,0.16966197330334568,-0.45087889482560206,-0.15699316004067262,-0.3641967779722135,-0.7102417696384742,0.4486884374663853,-0.541539770587311
Encode-Decode_Experiment-11-1,2348899,encoding,3.835123,0.52,0.19808,0.08394,25,13,False,0.194244,0.172049,21,11,32,32,1.0,0.186614,0.795197,1.0,3377.0,4.0,4.0,What is the woman doing?,1.0,9406.0,1.0,1.0,Where is the woman located relative to the man? (from your perspective),46.0,2.0,,,,,0.6086956521739131,0.5,0.6470588235294118,14.0,3.0,11.0,3.18626444,0.6488585599999999,1.4031198497847597,0.13863135122977524,1.7151974205771219,0.5598404744016213,-0.3641967779722135,-0.10536407349082963,0.5814197324079708,2.103205483300732
Encode-Decode_Experiment-11-1,2379478,encoding,-0.019075,0.285714,0.288429,0.142295,14,4,False,0.4593,0.376932,10,7,18,17,0.9444,0.444714,0.930724,1.0,2193.0,2.0,2.0,How many babies are visible in the scene?,1.0,5005.0,4.0,4.0,What is the position of the babies?,47.0,2.0,,,,,0.5625,0.8,0.5,9.0,4.0,5.0,2.318576956521739,-2.337651956521739,1.1559328518651655,0.2577925144752665,-0.9362968807490076,-2.0169452342973,-2.8561479741452325,3.0856859914201973,1.8788358311853406,1.1131158382213704
Encode-Decode_Experiment-12-1,2348899,encoding,1.566717,0.75,0.496167,0.162016,12,9,False,0.211917,,26,0,26,26,1.0,0.211917,0.880272,1.0,4705.0,4.0,4.0,What is the woman doing?,1.0,6461.0,1.0,1.0,Where is the woman located relative to the man? (from your perspective),1.0,2.0,,,,,0.43478260869565216,0.16666666666666666,0.5294117647058824,10.0,1.0,9.0,3.18626444,-1.61954744,1.4031198497847597,0.13863135122977524,0.1546482266607739,-1.397358782051872,-1.4321758620463645,0.20747257816528694,1.3958528313733782,2.103205483300732
Encode-Decode_Experiment-12-1,2362704,encoding,0.488559,0.166667,0.130375,0.074283,24,4,False,0.241483,0.322712,9,20,30,29,0.9667,0.298547,0.846425,1.0,4769.0,4.0,4.0,What are the bears doing with the pumpkins?,1.0,1435.0,2.0,2.0,How many bears are in the scene?,3.0,2.0,,,,,0.5555555555555556,0.2,0.5714285714285714,5.0,1.0,4.0,0.28402952,0.20452948000000004,0.9964806795304295,0.21728616172690426,-0.5870702301826931,0.17646970876413648,-0.7201898059969305,1.2785328924746333,1.0718314725643017,-1.2084393157702005
Encode-Decode_Experiment-12-1,2412687,encoding,1.598289,0.6,0.370667,0.143487,15,9,False,0.115768,0.140906,17,7,31,24,0.7742,0.118383,0.482567,1.0,4546.0,4.0,4.0,What is the dog biting onto in the scene?,1.0,3800.0,3.0,3.0,What is the human's body position?,4.0,2.0,,,,,0.06666666666666667,0.0,0.1111111111111111,1.0,0.0,1.0,1.392583090909091,0.20570590909090902,1.121179392943873,0.2673871939639434,0.1763681741262308,0.1774847414090851,-0.542193291984572,-0.9489461617471034,-2.4114244607105166,0.05649469845928904
Encode-Decode_Experiment-12-1,2379478,encoding,2.782982,0.722222,0.341778,0.136704,18,13,False,0.388866,0.249042,29,4,33,33,1.0,0.371917,0.854136,1.0,2555.0,2.0,2.0,How many babies are visible in the scene?,1.0,4318.0,4.0,4.0,What is the position of the babies?,5.0,2.0,,,,,0.4375,0.4,0.5,7.0,2.0,5.0,2.318576956521739,0.46440504347826117,1.1559328518651655,0.2577925144752665,0.9913773506970651,0.4006924711841289,-0.18620026395985498,2.1856516187920376,1.1456497931769642,1.1131158382213704
Encode-Decode_Experiment-12-1,2374670,encoding,0.249412,0.318182,0.289955,0.113175,22,7,False,0.15559,0.127896,18,14,33,32,0.9697,0.139603,0.634907,0.0,5477.0,4.0,1.0,What vehicle sprays water in the scene?,1.0,3700.0,3.0,3.0,Where is the man standing relative to the vehicle?,6.0,1.0,,,,,0.3684210526315789,0.2857142857142857,0.45454545454545453,7.0,2.0,5.0,1.4215436399999999,-1.17213164,0.9526515902668666,0.18897085580323902,-0.7515913335819581,-1.0113247691434486,-0.18620026395985498,-0.6865901664839806,-0.9530555121781612,0.08954062837841037
Encode-Decode_Experiment-12-1,2347400,encoding,1.382448,0.263158,0.141895,0.087716,19,5,False,0.173668,0.287058,14,13,30,27,0.9,0.223652,0.866298,1.0,7922.0,3.0,3.0,What are the men doing with the wine?,1.0,2618.0,1.0,1.0,What are the men sitting on in the scene?,7.0,2.0,,,,,0.5,0.375,0.5833333333333334,10.0,3.0,7.0,0.9532147599999999,0.42923323999999996,1.0825798670335782,0.14817733206914757,0.0278804260934277,0.37034595137427945,-0.7201898059969305,0.35255964717625515,1.2620780664607407,-0.44485405105254167
Encode-Decode_Experiment-12-1,2408717,encoding,0.357366,0.217391,0.185,0.090639,23,5,False,0.307717,0.204369,11,19,32,30,0.9375,0.248498,0.827274,1.0,5172.0,2.0,2.0,How many surfers are in the scene?,1.0,4703.0,3.0,3.0,What are the surfers doing with the surfboards?,8.0,2.0,,,,,0.4375,0.2857142857142857,0.4444444444444444,7.0,2.0,4.0,0.5013781199999999,-0.1440121199999999,0.7617959056815633,0.17980747806102687,-0.6773244132510977,-0.12425483541495262,-0.3641967779722135,0.6597461249475818,0.8884966705862053,-0.960429977926747
Encode-Decode_Experiment-12-1,2410309,encoding,0.27344,0.3,0.26725,0.11977,20,6,False,0.422645,0.22628,14,14,29,28,0.9655,0.320055,0.740928,1.0,3377.0,4.0,4.0,How many laptops or electronic devices are visible?,1.0,4521.0,2.0,2.0,What is the baby touching?,12.0,2.0,,,,,0.47058823529411764,0.42857142857142855,0.4166666666666667,8.0,3.0,5.0,0.21159204000000004,0.06184795999999998,0.9293689629549485,0.2249985373471005,-0.7350612785426828,0.05336292591589221,-0.898186320009289,1.544449610010884,0.06189613737119501,-1.291095341389176
Encode-Decode_Experiment-12-1,2371471,encoding,3.127066,0.64,0.30496,0.107142,25,16,False,0.410398,0.467525,25,6,31,31,1.0,0.421455,0.802068,1.0,14130.0,2.0,2.0,What stunt is one motorcyclist performing?,0.0,7842.0,1.0,3.0,What is nearest to the motorcyclists?,13.0,1.0,,,,,0.35,0.2,0.3333333333333333,7.0,1.0,5.0,1.6010008636363637,1.5260651363636364,1.2530896461688035,0.21932342966135415,1.2280898302265288,1.316701485620523,-0.542193291984572,2.798120577008088,0.6471966330602339,0.29431336307869904
Encode-Decode_Experiment-12-1,2356991,encoding,-0.476864,0.166667,0.2155,0.102405,24,4,False,0.14828,0.172787,7,23,30,30,1.0,0.167069,0.840315,1.0,6140.0,1.0,1.0,How is the player on the left (from your perspective) reaching the base?,0.0,10852.0,1.0,2.0,What is the current action of the gloved player on the base?,14.0,1.0,,,,,0.375,0.2857142857142857,0.4,6.0,2.0,4.0,0.9599711999999999,-1.4368352,1.1299679288759703,0.23763702187720387,-1.2512326792497042,-1.239713166464119,-0.7201898059969305,-0.34701100692239123,1.0133397154714001,-0.4371444996195947
Encode-Decode_Experiment-12-1,2349475,encoding,0.903512,0.285714,0.19619,0.099084,21,6,False,0.06314,0.06219,12,15,30,27,0.9,0.073385,0.694358,1.0,4695.0,1.0,1.0,What is the man doing to power the blender?,1.0,4553.0,3.0,3.0,Which part of the blender is the woman holding?,15.0,2.0,,,,,0.55,0.3,0.6153846153846154,11.0,3.0,8.0,1.34448224,-0.44097024000000007,1.2723044603624847,0.14645571126562063,-0.3016034444030883,-0.38047273100411416,-0.7201898059969305,-1.5052842896853693,-0.38392401448092395,0.0016083997498870018
Encode-Decode_Experiment-12-1,2370664,encoding,1.792974,0.36,0.20424,0.086872,25,9,False,0.158935,0.098141,17,15,32,32,1.0,0.130438,0.801564,1.0,3163.0,1.0,1.0,Where are the people located in the scene?,1.0,2855.0,4.0,4.0,How many donuts are in the scene?,16.0,2.0,,,,,0.35,0.2857142857142857,0.2857142857142857,7.0,2.0,4.0,1.0494850833333333,0.7434889166666667,1.432874922145287,0.23109694308114348,0.3103016586160462,0.6414883203806608,-0.3641967779722135,-0.7999027346548818,0.6423717810839951,-0.3350031518800823
Encode-Decode_Experiment-12-1,2394020,encoding,3.928929,0.782609,0.335478,0.113805,23,18,False,0.297217,0.201905,26,2,31,28,0.9032,0.305749,0.825861,1.0,2564.0,2.0,2.0,What are the riders wearing on their heads?,1.0,6988.0,1.0,1.0,Where is the scene taking place?,17.0,2.0,,,,,0.35,0.14285714285714285,0.5,7.0,1.0,6.0,1.87165164,2.05727736,1.0342693856012917,0.1998541134594599,1.7797312287598355,1.7750357384483226,-0.542193291984572,1.3675756765408449,0.8749698534385342,0.6031440610117066
Encode-Decode_Experiment-12-1,2345035,encoding,-0.513364,0.315789,0.383895,0.132665,19,6,False,0.180412,0.292083,14,13,34,27,0.7941,0.226322,0.811189,1.0,3588.0,2.0,2.0,Who runs toward the football in the scene?,0.0,8018.0,2.0,3.0,What are the people doing with the football?,18.0,1.0,,,,,0.38095238095238093,0.2,0.4666666666666667,8.0,1.0,7.0,0.49328904,-1.00665304,1.24529052422522,0.2321196304141944,-1.2763428427645012,-0.868548479149962,-0.008203749947496489,0.3855705099167141,0.7345130514635665,-0.9696601610269036
Encode-Decode_Experiment-12-1,2369373,encoding,2.49022,0.647059,0.327706,0.128243,17,11,False,0.229375,0.075314,21,2,24,23,0.9583,0.21144,0.769133,1.0,2801.0,3.0,3.0,What tool is the chef using?,1.0,4471.0,3.0,3.0,What is the appearance of the oven?,20.0,2.0,,,,,0.4,0.25,0.4166666666666667,6.0,1.0,5.0,1.0857792916666666,1.4044407083333332,1.1744307155537281,0.30599341805477037,0.7899718249184619,1.2117629340087344,-1.7881688900710815,0.2015751319004184,0.33190595877959056,-0.29358902463793607
Encode-Decode_Experiment-12-1,2360001,encoding,1.04886,0.333333,0.215133,0.112694,15,5,False,0.338907,0.117954,9,14,23,23,1.0,0.204414,0.447441,1.0,4385.0,4.0,4.0,What are the workers doing to the clock?,1.0,5966.0,4.0,4.0,Where are the men standing?,21.0,2.0,,,,,0.4,0.2857142857142857,0.5454545454545454,8.0,2.0,6.0,1.4038728,-0.35501280000000013,1.2583315202774465,0.20068632240389478,-0.20161133353873986,-0.3063079484851799,-1.96616540408344,0.11470834477889649,-2.7476898387212008,0.06937701413135482
Encode-Decode_Experiment-12-1,2344622,encoding,1.079607,0.277778,0.175444,0.094788,18,5,False,0.195878,0.182635,17,15,32,32,1.0,0.18967,0.613348,1.0,3553.0,4.0,4.0,What is the cat resting its head on?,1.0,2338.0,2.0,2.0,Where is the cat located?,22.0,2.0,,,,,0.42857142857142855,0.4,0.4,6.0,2.0,4.0,0.570194875,0.509412125,1.119020083695564,0.224707736831677,-0.18045894456368597,0.43952494936020886,-0.3641967779722135,-0.06758085381485866,-1.1594423847094009,-0.8819054425026165
Encode-Decode_Experiment-12-1,2385550,encoding,0.806193,0.230769,0.163308,0.083679,26,6,False,0.187256,0.225803,11,21,32,32,1.0,0.212552,0.817526,1.0,4594.0,3.0,3.0,Which side of the frame is the boy on? (from your perspective),1.0,2877.0,4.0,4.0,Where are the tangerines in the scene?,23.0,2.0,,,,,0.3888888888888889,0.25,0.42857142857142855,7.0,1.0,6.0,1.82361632,-1.0174233199999998,1.3291001612144937,0.2042747449101898,-0.36855401983039054,-0.8778411648542828,-0.3641967779722135,0.21532347623277434,0.7951779065695755,0.5483325374670487
Encode-Decode_Experiment-12-1,2409918,encoding,2.437274,0.8125,0.475812,0.138141,16,13,False,0.105191,,29,0,31,29,0.9355,0.116702,0.621153,0.0,7279.0,3.0,2.0,What is the elephant on the right (from your perspective) doing with its trunk?,1.0,3754.0,4.0,4.0,Where are the elephants in the scene?,25.0,1.0,,,,,0.5625,0.3333333333333333,0.7,9.0,2.0,7.0,2.23749776,0.19977623999999983,1.4036877302463346,0.13678792892649555,0.7535476408786141,0.1723685744020578,-0.542193291984572,-0.9697294052926884,-1.0847241909106942,1.0205990341460938
Encode-Decode_Experiment-12-1,2347025,encoding,0.835642,0.722222,0.614611,0.128777,18,13,False,0.083014,0.033475,26,1,28,27,0.9643,0.080254,0.790795,1.0,3188.0,1.0,1.0,Where is the baby in relation to the mother?,1.0,4422.0,2.0,2.0,Who is holding the umbrella in the scene?,26.0,2.0,,,,,0.4666666666666667,0.5,0.4166666666666667,7.0,2.0,5.0,0.86848204,-0.03284003999999996,1.3737290961395456,0.16966197330334568,-0.34829458954690407,-0.02833465520277361,-1.0761828340216475,-1.420358590747462,0.5392788625678798,-0.541539770587311
Encode-Decode_Experiment-12-1,2383555,encoding,0.882377,0.375,0.277958,0.109978,24,9,False,0.206303,0.170577,16,15,32,31,0.9688,0.185409,0.83754,0.0,2500.0,3.0,2.0,Who is holding the child in the boat?,1.0,5224.0,4.0,4.0,What is the woman at the back doing in the boat?,27.0,1.0,,,,,0.2857142857142857,0.2,0.36363636363636365,6.0,2.0,4.0,0.16603777272727271,0.7163392272727273,0.9647251812359597,0.2505405411716091,-0.3161432610026838,0.6180633462381301,-0.3641967779722135,-0.12026223439054999,0.9867743102450812,-1.3430758172802229
Encode-Decode_Experiment-12-1,2387122,encoding,0.35523,0.470588,0.420118,0.142078,17,8,False,0.131836,0.071836,19,6,26,25,0.9615,0.122484,0.751647,1.0,3195.0,3.0,3.0,Where is the polar bear located in the scene?,1.0,6460.0,1.0,1.0,What is the polar bear doing next to the enclosure edge?,32.0,2.0,,,,,0.47058823529411764,0.2,0.5833333333333334,8.0,1.0,7.0,0.95913252,-0.6039025200000001,0.8077495096045205,0.1703801241070615,-0.6787938737789774,-0.5210520352681095,-1.4321758620463645,-0.8982429602120392,0.1645103999372854,-0.4381014897794693
Encode-Decode_Experiment-12-1,2411268,encoding,3.118175,0.777778,0.384611,0.126089,18,14,False,0.151452,0.139584,24,2,28,26,0.9286,0.14773,0.868536,1.0,7147.0,2.0,2.0,What is the child holding while picking fruit?,1.0,5309.0,4.0,4.0,Where is the fruit branch relative to the child?,35.0,2.0,,,,,0.6111111111111112,0.3333333333333333,0.6428571428571429,11.0,2.0,9.0,1.9073307727272728,1.2108442272727271,1.2391389727298137,0.26263048542262296,1.2219732695741983,1.0447263061811625,-1.0761828340216475,-0.5861110348391457,1.2835027067838034,0.6438563457125034
Encode-Decode_Experiment-12-1,2397102,encoding,1.238677,0.428571,0.28519,0.115753,21,9,False,0.085259,0.18614,19,10,31,29,0.9355,0.118279,0.623501,1.0,2848.0,3.0,3.0,What is the man holding besides the cake knife?,1.0,2213.0,1.0,1.0,What are the couple doing with the cake?,46.0,2.0,,,,,0.38095238095238093,0.4,0.3157894736842105,8.0,2.0,6.0,2.27765524,-1.03897824,1.2432531819164083,0.23108201096190967,-0.07102678811714441,-0.8964389261884157,-0.542193291984572,-0.950231978123511,-1.0622465074975789,1.066421413605919
Encode-Decode_Experiment-12-1,2385851,encoding,-1.348958,0.0,0.113294,0.083986,17,0,False,,0.143996,0,21,22,21,0.9545,0.147182,0.907475,1.0,2616.0,2.0,2.0,What are the men doing with the suitcases?,0.0,5927.0,4.0,3.0,Where are the men?,48.0,1.0,,,,,0.8125,0.5714285714285714,1.0,13.0,4.0,9.0,-0.3014092272727273,-1.0475487727272728,0.884229601566618,0.18298126367784998,-1.8511894721339073,-0.9038336519479263,-2.1441619180957985,-0.5928862980532923,1.6562703875432985,-1.8764642124523512
Encode-Decode_Experiment-12-1,150472,encoding,0.958904,0.458333,0.354917,0.107849,24,11,False,0.09993,0.108113,18,9,29,27,0.931,0.11259,0.642599,1.0,1991.0,4.0,4.0,How many women are in the scene?,1.0,4824.0,2.0,2.0,Where is the pizza slice located?,49.0,2.0,,,,,0.625,0.25,0.8,10.0,1.0,8.0,1.150756347826087,-0.19185234782608696,1.4947937518299248,0.18270380898651734,-0.26349653543290646,-0.16553177540267233,-0.898186320009289,-1.0205686066367958,-0.8794190808265075,-0.2194458432550575
Encode-Decode_Experiment-13-1,2383555,encoding,-0.941434,0.043478,0.111478,0.07223,23,1,False,0.250284,0.2218,2,24,33,26,0.7879,0.198782,0.737559,0.0,6222.0,3.0,2.0,Who is holding the child in the boat?,1.0,3642.0,4.0,4.0,What is the woman at the back doing in the boat?,1.0,1.0,,,,,0.3333333333333333,0.2,0.45454545454545453,7.0,2.0,5.0,0.16603777272727271,-1.1074717727272727,0.9647251812359597,0.2505405411716091,-1.5708334645666702,-0.9555357066261728,-0.18620026395985498,0.045076442548834555,0.029644299458594224,-1.3430758172802229
Encode-Decode_Experiment-13-1,2362704,encoding,-0.569881,0.074074,0.113481,0.06915,27,2,False,0.357824,0.25117,3,30,33,33,1.0,0.260866,0.786256,1.0,4661.0,4.0,4.0,What are the bears doing with the pumpkins?,1.0,1935.0,2.0,2.0,How many bears are in the scene?,2.0,2.0,,,,,0.4444444444444444,0.2,0.42857142857142855,4.0,1.0,3.0,0.28402952,-0.8539105199999999,0.9964806795304295,0.21728616172690426,-1.315223695130687,-0.7367609831845867,-0.18620026395985498,0.8126593647880295,0.49582647542472336,-1.2084393157702005
Encode-Decode_Experiment-13-1,2408717,encoding,0.977161,0.291667,0.207042,0.086603,24,7,False,0.27242,0.165683,15,13,38,28,0.7368,0.225013,0.81579,1.0,5354.0,3.0,3.0,What are the surfers doing with the surfboards?,1.0,3379.0,2.0,2.0,How many surfers are in the scene?,3.0,2.0,,,,,0.375,0.14285714285714285,0.4444444444444444,6.0,1.0,4.0,0.5013781199999999,0.47578288,0.7617959056815633,0.17980747806102687,-0.2509366380277106,0.4105093616263146,0.7037823061019375,0.36938653264058646,0.7785589719847514,-0.960429977926747
Encode-Decode_Experiment-13-1,2356991,encoding,1.402613,0.307692,0.182385,0.089339,26,8,False,0.119732,0.180797,14,16,33,30,0.9091,0.156088,0.711078,1.0,11044.0,2.0,2.0,What is the current action of the gloved player on the base?,1.0,8942.0,1.0,1.0,How is the player on the left (from your perspective) reaching the base?,4.0,2.0,,,,,0.625,0.8571428571428571,0.4,10.0,6.0,4.0,0.9599711999999999,0.4426418000000002,1.1299679288759703,0.23763702187720387,0.04175293149824654,0.38191496664849073,-0.18620026395985498,-0.4827759072044058,-0.22386146479298302,-0.4371444996195947
Encode-Decode_Experiment-13-1,2349475,encoding,1.996356,0.458333,0.248625,0.105046,24,11,False,0.100344,0.047474,20,8,35,28,0.8,0.095884,0.720447,1.0,7850.0,3.0,3.0,Which part of the blender is the woman holding?,1.0,3279.0,1.0,1.0,What is the man doing to power the blender?,5.0,2.0,,,,,0.55,0.3,0.5384615384615384,11.0,3.0,7.0,1.34448224,0.65187376,1.2723044603624847,0.14645571126562063,0.4502182415192366,0.5624420136313971,0.16979276406486202,-1.2271152257162365,-0.13417091287753347,0.0016083997498870018
Encode-Decode_Experiment-13-1,2385851,encoding,-0.567677,0.090909,0.136545,0.080391,22,2,False,0.103798,0.287702,5,23,30,28,0.9333,0.256344,0.894475,1.0,4739.0,2.0,2.0,What are the men doing with the suitcases?,0.0,5823.0,4.0,3.0,Where are the men?,7.0,1.0,,,,,0.4375,0.42857142857142855,0.4444444444444444,7.0,3.0,4.0,-0.3014092272727273,-0.2662677727272727,0.884229601566618,0.18298126367784998,-1.3137074540242046,-0.22973801285984338,-0.7201898059969305,0.7567510796523162,1.531819840537124,-1.8764642124523512
Encode-Decode_Experiment-13-1,2345035,encoding,0.447078,0.428571,0.371048,0.128666,21,9,False,0.15256,0.144497,16,10,35,26,0.7429,0.163761,0.757066,0.0,6182.0,2.0,3.0,What are the people doing with the football?,1.0,5894.0,2.0,2.0,Who runs toward the football in the scene?,8.0,1.0,,,,,0.42857142857142855,0.6,0.3333333333333333,9.0,3.0,5.0,0.49328904,-0.04621104000000004,1.24529052422522,0.2321196304141944,-0.6156070710801533,-0.03987126340167619,0.16979276406486202,-0.38790985858734933,0.2163871318008598,-0.9696601610269036
Encode-Decode_Experiment-13-1,2347025,encoding,0.571459,0.727273,0.664545,0.109767,22,16,False,0.091097,0.035702,26,4,30,30,1.0,0.083711,0.765865,1.0,3674.0,1.0,1.0,Where is the baby in relation to the mother?,1.0,3658.0,2.0,2.0,Who is holding the umbrella in the scene?,11.0,2.0,,,,,0.4666666666666667,0.75,0.3333333333333333,7.0,3.0,4.0,0.86848204,-0.2970230399999999,1.3737290961395456,0.16966197330334568,-0.5300392012682636,-0.256273909096324,-0.7201898059969305,-1.3776175598509204,0.300621005886039,-0.541539770587311
Encode-Decode_Experiment-13-1,2410309,encoding,0.80925,0.15,0.0894,0.074884,20,3,False,0.2882,0.303889,6,17,23,23,1.0,0.299796,0.776154,1.0,4719.0,2.0,2.0,What is the baby touching?,1.0,3730.0,4.0,4.0,How many laptops or electronic devices are visible?,12.0,2.0,,,,,0.5882352941176471,0.5714285714285714,0.5,10.0,4.0,6.0,0.21159204000000004,0.59765796,0.9293689629549485,0.2249985373471005,-0.3664509576423156,0.5156641778083428,-1.96616540408344,1.293975052610526,0.3991188272819258,-1.291095341389176
Encode-Decode_Experiment-13-1,2347400,encoding,-0.285091,0.25,0.2829,0.115402,20,5,False,0.19563,0.194686,11,18,33,29,0.8788,0.201439,0.8123,1.0,4850.0,3.0,3.0,What are the men doing with the wine?,1.0,2984.0,1.0,1.0,What are the men sitting on in the scene?,13.0,2.0,,,,,0.4,0.25,0.5,8.0,2.0,6.0,0.9532147599999999,-1.2383057599999998,1.0825798670335782,0.14817733206914757,-1.1193025042435898,-1.0684203413031343,-0.18620026395985498,0.07792657824224278,0.7451487866730939,-0.44485405105254167
Encode-Decode_Experiment-13-1,2367132,encoding,3.972417,0.461538,0.134923,0.082221,26,12,False,0.095807,0.137473,26,8,36,34,0.9444,0.10363,0.760737,1.0,3504.0,2.0,2.0,How many men are playing in the scene?,0.0,15044.0,2.0,4.0,In which hand(s) are the men holding the controllers?,15.0,1.0,,,,,0.5454545454545454,0.6,0.5,12.0,3.0,9.0,3.3087804166666666,0.6636365833333335,1.3768064008305572,0.1544481949671963,1.809648784675767,0.5725910738445134,0.3477892780772205,-1.1313466329118937,0.2515300516516032,2.243004434149019
Encode-Decode_Experiment-13-1,2397102,encoding,2.18961,0.32,0.14304,0.080818,25,8,False,0.086902,0.131221,15,15,33,30,0.9091,0.109785,0.640224,1.0,3084.0,1.0,1.0,What are the couple doing with the cake?,1.0,5802.0,3.0,3.0,What is the man holding besides the cake knife?,16.0,2.0,,,,,0.8571428571428571,0.8,0.7368421052631579,18.0,4.0,14.0,2.27765524,-0.08804524000000002,1.2432531819164083,0.23108201096190967,0.5831672700093349,-0.07596615344090493,-0.18620026395985498,-1.0552485579427837,-0.9021552384526357,1.066421413605919
Encode-Decode_Experiment-13-1,2379478,encoding,3.470931,0.5,0.214687,0.082201,32,16,False,0.359212,0.372775,23,12,35,35,1.0,0.363862,0.845637,0.0,3873.0,3.0,4.0,What is the position of the babies?,1.0,3325.0,2.0,2.0,How many babies are visible in the scene?,17.0,1.0,,,,,0.625,1.0,0.5,10.0,5.0,5.0,2.318576956521739,1.1523540434782613,1.1559328518651655,0.2577925144752665,1.4646516487749037,0.9942604970480723,0.16979276406486202,2.0860626677154848,1.0642878547919272,1.1131158382213704
Encode-Decode_Experiment-13-1,2394020,encoding,2.328615,0.764706,0.460882,0.130474,17,13,False,0.215258,0.250507,25,1,31,26,0.8387,0.216909,0.844546,0.0,5040.0,1.0,2.0,What are the riders wearing on their heads?,0.0,10517.0,4.0,1.0,Where is the scene taking place?,19.0,0.0,,,,,0.3,0.14285714285714285,0.3333333333333333,6.0,1.0,4.0,1.87165164,0.45696336000000004,1.0342693856012917,0.1998541134594599,0.6787957160195914,0.3942717257926888,-0.542193291984572,0.2691917642328415,1.0538435819624095,0.6031440610117066
Encode-Decode_Experiment-13-1,150472,encoding,-0.511376,0.2,0.25465,0.106869,20,4,False,0.068257,0.077041,10,20,31,30,0.9677,0.077114,0.681302,1.0,3206.0,2.0,2.0,Where is the pizza slice located?,1.0,3176.0,4.0,4.0,How many women are in the scene?,22.0,2.0,,,,,0.625,0.5,0.7,10.0,2.0,7.0,1.150756347826087,-1.662132347826087,1.4947937518299248,0.18270380898651734,-1.2749751987900515,-1.434101388945593,-0.542193291984572,-1.4591803544197621,-0.5089106561511257,-0.2194458432550575
Encode-Decode_Experiment-13-1,2356125,encoding,2.12238,0.454545,0.247909,0.097361,22,10,False,0.293852,0.291583,19,8,33,27,0.8182,0.293749,0.761432,1.0,6255.0,1.0,1.0,Where is the luggage being moved to?,1.0,5479.0,2.0,2.0,How many uniformed staff are moving the luggage?,24.0,2.0,,,,,0.45,0.5714285714285714,0.38461538461538464,9.0,4.0,5.0,0.6789982499999999,1.4433817500000004,0.937328047915491,0.2935832474587162,0.5369164126641348,1.2453615833667089,-0.18620026395985498,1.2192122484938384,0.2581833693569333,-0.7577534903442729
Encode-Decode_Experiment-13-1,2360001,encoding,0.852272,0.178571,0.120893,0.067676,28,5,False,0.281527,0.329262,12,22,34,34,1.0,0.312414,0.526862,0.0,6756.0,2.0,4.0,Where are the men standing?,1.0,4500.0,4.0,4.0,What are the workers doing to the clock?,25.0,1.0,,,,,0.45,0.42857142857142855,0.5454545454545454,9.0,3.0,6.0,1.4038728,-0.5516008,1.2583315202774465,0.20068632240389478,-0.33685398627975127,-0.47592568332968266,-0.008203749947496489,1.4499791972019533,-1.987383154584478,0.06937701413135482
Encode-Decode_Experiment-13-1,2371471,encoding,2.665161,0.521739,0.247565,0.102873,23,12,False,0.265591,0.546979,24,8,32,32,1.0,0.335938,0.778421,0.0,7127.0,1.0,3.0,What is nearest to the motorcyclists?,1.0,6087.0,2.0,2.0,What stunt is one motorcyclist performing?,26.0,1.0,,,,,0.5,0.6,0.4,10.0,3.0,6.0,1.6010008636363637,1.0641601363636362,1.2530896461688035,0.21932342966135415,0.9103224308209854,0.9181660724043036,-0.3641967779722135,1.7408209706501012,0.4208210880560027,0.29431336307869904
Encode-Decode_Experiment-13-1,2348899,encoding,2.057856,0.47619,0.250286,0.109777,21,10,False,0.15063,0.129168,22,8,30,30,1.0,0.144907,0.790492,1.0,6089.0,4.0,4.0,What is the woman doing?,1.0,6644.0,1.0,1.0,Where is the woman located relative to the man? (from your perspective),27.0,2.0,,,,,0.6086956521739131,0.3333333333333333,0.7058823529411765,14.0,2.0,12.0,3.18626444,-1.1284084399999998,1.4031198497847597,0.13863135122977524,0.4925271471674564,-0.9736000344487918,-0.7201898059969305,-0.6210135312872038,0.5363782075107355,2.103205483300732
Encode-Decode_Experiment-13-1,2369373,encoding,0.563401,0.444444,0.366222,0.138839,18,8,False,0.227792,0.204199,19,7,28,26,0.9286,0.213981,0.739441,1.0,4028.0,3.0,3.0,What tool is the chef using?,1.0,4322.0,3.0,3.0,What is the appearance of the oven?,28.0,2.0,,,,,0.6,0.5,0.5833333333333334,9.0,2.0,7.0,1.0857792916666666,-0.5223782916666666,1.1744307155537281,0.30599341805477037,-0.5355826998327085,-0.45071226404684434,-1.0761828340216475,0.23299108778937216,0.04766090941748859,-0.29358902463793607
Encode-Decode_Experiment-13-1,2386442,encoding,2.44309,0.695652,0.395913,0.122689,23,16,False,0.127344,0.099366,32,3,35,35,1.0,0.124946,0.851966,1.0,6171.0,1.0,1.0,Who is brushing their teeth in the scene?,1.0,7296.0,3.0,3.0,What is the person on the right wearing?,29.0,2.0,,,,,0.5,0.6666666666666666,0.38461538461538464,9.0,4.0,5.0,2.808329,-0.36523899999999987,1.4245428094218986,0.2774649513164166,0.7575487562485338,-0.3151311975139447,0.16979276406486202,-0.8678037302243949,1.1248761249459336,1.6719557847888746
Encode-Decode_Experiment-13-1,2387122,encoding,0.600094,0.461538,0.360231,0.16882,13,6,False,0.156238,0.374332,9,7,19,16,0.8421,0.261716,0.791806,1.0,7180.0,1.0,1.0,What is the polar bear doing next to the enclosure edge?,1.0,5457.0,3.0,3.0,Where is the polar bear located in the scene?,30.0,2.0,,,,,0.47058823529411764,0.4,0.5,8.0,2.0,6.0,0.95913252,-0.35903852,0.8077495096045205,0.1703801241070615,-0.5103397620286414,-0.30978137263883215,-2.6781514601328738,0.8231684409413593,0.5489572858773599,-0.4381014897794693
Encode-Decode_Experiment-13-1,2370664,encoding,-1.017978,0.058824,0.166882,0.106151,17,1,False,0.104568,0.133365,2,24,26,26,1.0,0.13115,0.855758,1.0,5084.0,4.0,4.0,How many donuts are in the scene?,1.0,3212.0,1.0,1.0,Where are the people located in the scene?,31.0,2.0,,,,,0.15,0.14285714285714285,0.14285714285714285,3.0,1.0,2.0,1.0494850833333333,-2.067463083333333,1.432874922145287,0.23109694308114348,-1.6234918852810984,-1.7838240638779153,-1.4321758620463645,-0.7910998379240929,1.1611773921957347,-0.3350031518800823
Encode-Decode_Experiment-13-1,2409918,encoding,-1.778182,0.142857,0.505714,0.204061,7,1,False,0.100713,0.241141,2,7,10,9,0.9,0.217613,0.733568,1.0,5887.0,4.0,4.0,Where are the elephants in the scene?,0.0,6895.0,4.0,2.0,What is the elephant on the right (from your perspective) doing with its trunk?,36.0,1.0,,,,,0.5,0.16666666666666666,0.7,8.0,1.0,7.0,2.23749776,-4.01567976,1.4036877302463346,0.13678792892649555,-2.146473987872955,-3.464761352433093,-4.2801200862441,0.27789575201159933,-0.00856201847230103,1.0205990341460938
Encode-Decode_Experiment-13-1,2385550,encoding,3.342677,0.464286,0.199464,0.079224,28,13,False,0.283041,0.31204,23,11,34,34,1.0,0.292423,0.849234,1.0,4891.0,3.0,3.0,Which side of the frame is the boy on? (from your perspective),1.0,3565.0,4.0,4.0,Where are the tangerines in the scene?,37.0,2.0,,,,,0.6111111111111112,0.75,0.5714285714285714,11.0,3.0,8.0,1.82361632,1.5190606800000002,1.3291001612144937,0.2042747449101898,1.376419349831704,1.3106579833608878,-0.008203749947496489,1.2028180896946443,1.0987223638366364,0.5483325374670487
Encode-Decode_Experiment-13-1,2374670,encoding,0.226189,0.473684,0.443421,0.133796,19,9,False,0.237692,0.276194,25,7,35,32,0.9143,0.259207,0.766752,1.0,5496.0,3.0,3.0,Where is the man standing relative to the vehicle?,1.0,4751.0,1.0,1.0,What vehicle sprays water in the scene?,41.0,2.0,,,,,0.47368421052631576,0.5714285714285714,0.36363636363636365,9.0,4.0,4.0,1.4215436399999999,-1.19535464,0.9526515902668666,0.18897085580323902,-0.767567589124537,-1.031361763549485,0.16979276406486202,0.7921481208605312,0.30911236243946,0.08954062837841037
Encode-Decode_Experiment-13-1,2344622,encoding,1.476616,0.304348,0.16613,0.093604,23,7,False,0.166774,0.290839,15,13,33,28,0.8485,0.25128,0.637273,1.0,3713.0,4.0,4.0,What is the cat resting its head on?,1.0,4659.0,2.0,2.0,Where is the cat located?,44.0,2.0,,,,,1.0,1.0,0.9,14.0,5.0,9.0,0.570194875,0.9064211249999999,1.119020083695564,0.224707736831677,0.09266327206223342,0.7820675628100696,-0.18620026395985498,0.6941417130164794,-0.9304055126230376,-0.8819054425026165
Encode-Decode_Experiment-14-1,2369373,encoding,1.436457,0.444444,0.269333,0.121905,18,8,False,0.201006,0.326698,14,8,25,22,0.88,0.222772,0.714201,0.0,5927.0,2.0,3.0,What is the appearance of the oven?,1.0,4681.0,3.0,3.0,What tool is the chef using?,1.0,1.0,,,,,0.9333333333333333,0.75,0.9166666666666666,14.0,3.0,11.0,1.0857792916666666,0.35067770833333345,1.1744307155537281,0.30599341805477037,0.06503590064878875,0.30256759592630916,-1.610172376058723,0.3416796624528081,-0.19396461415449984,-0.29358902463793607
Encode-Decode_Experiment-14-1,2397102,encoding,3.841226,0.37931,0.122724,0.066798,29,11,False,0.11555,0.149194,21,15,37,36,0.973,0.126972,0.582791,1.0,4256.0,1.0,1.0,What are the couple doing with the cake?,1.0,4480.0,3.0,3.0,What is the man holding besides the cake knife?,2.0,2.0,,,,,0.6666666666666666,0.4,0.631578947368421,14.0,2.0,12.0,2.27765524,1.5635707599999997,1.2432531819164083,0.23108201096190967,1.7193959775067327,1.3490616445576422,0.525785792089579,-0.8427550381224588,-1.4519681820069148,1.066421413605919
Encode-Decode_Experiment-14-1,2350974,encoding,2.712301,0.6,0.28845,0.114866,20,12,False,0.287804,0.272957,27,3,33,30,0.9091,0.279347,0.779404,1.0,12366.0,4.0,4.0,Between which two objects is the child standing?,1.0,3297.0,1.0,1.0,What is the child up against?,3.0,2.0,,,,,0.0,0.0,0.0,0.0,0.0,0.0,1.8882654,0.8240356,1.2442143057663109,0.38083073836292586,0.9427523789877673,0.7109846577778441,-0.18620026395985498,1.0411514075994233,0.4302314640334692,0.6221014760430896
Encode-Decode_Experiment-14-1,2362704,encoding,1.405212,0.173913,0.082522,0.065037,23,4,False,0.323391,0.188194,9,19,30,28,0.9333,0.248635,0.837462,1.0,2038.0,2.0,2.0,How many bears are in the scene?,1.0,3418.0,4.0,4.0,What are the bears doing with the pumpkins?,4.0,2.0,,,,,0.6666666666666666,0.4,0.5714285714285714,6.0,2.0,4.0,0.28402952,1.1211824799999999,0.9964806795304295,0.21728616172690426,0.04354091273043702,0.9673654170394027,-0.7201898059969305,0.6614399407511183,0.986027606963045,-1.2084393157702005
Encode-Decode_Experiment-14-1,2347025,encoding,0.138287,0.684211,0.667737,0.119127,19,13,False,0.144578,0.062884,21,4,29,25,0.8621,0.129955,0.724479,1.0,6163.0,1.0,1.0,Where is the baby in relation to the mother?,0.0,4779.0,3.0,2.0,Who is holding the umbrella in the scene?,5.0,1.0,,,,,0.5333333333333333,0.75,0.4166666666666667,8.0,3.0,5.0,0.86848204,-0.7301950399999999,1.3737290961395456,0.16966197330334568,-0.8280397423650215,-0.6300182548247663,-0.898186320009289,-0.805874362633774,-0.09557209706761809,-0.541539770587311
Encode-Decode_Experiment-14-1,2408717,encoding,1.009447,0.26087,0.178,0.082094,23,6,False,0.321244,0.267482,12,14,33,26,0.7879,0.264068,0.810717,1.0,2100.0,2.0,2.0,How many surfers are in the scene?,1.0,4261.0,3.0,3.0,What are the surfers doing with the surfboards?,6.0,2.0,,,,,0.5625,0.14285714285714285,0.7777777777777778,9.0,1.0,7.0,0.5013781199999999,0.5080688800000001,0.7617959056815633,0.17980747806102687,-0.22872549448692325,0.4383659865840415,-0.18620026395985498,0.8522476728385727,0.729994539295342,-0.960429977926747
Encode-Decode_Experiment-14-1,2383555,encoding,-0.84846,0.045455,0.107,0.072538,22,1,False,0.40903,0.212643,2,23,32,25,0.7812,0.213888,0.737485,1.0,4001.0,2.0,2.0,Who is holding the child in the boat?,1.0,3810.0,4.0,4.0,What is the woman at the back doing in the boat?,7.0,2.0,,,,,0.0,0.0,0.0,0.0,0.0,0.0,0.16603777272727271,-1.0144977727272728,0.9647251812359597,0.2505405411716091,-1.5068720305221568,-0.8753169787311194,-0.3641967779722135,0.23184127122200773,0.028935888652558903,-1.3430758172802229
Encode-Decode_Experiment-14-1,2347400,encoding,2.033132,0.375,0.195417,0.088328,24,9,False,0.190789,0.219729,20,11,36,31,0.8611,0.205055,0.780074,1.0,4992.0,3.0,3.0,What are the men doing with the wine?,1.0,2760.0,1.0,1.0,What are the men sitting on in the scene?,8.0,2.0,,,,,0.5,0.375,0.5833333333333334,10.0,3.0,7.0,0.9532147599999999,1.0799172400000003,1.0825798670335782,0.14817733206914757,0.47551827914718675,0.9317614303432936,0.3477892780772205,0.1226334245604071,0.436645453763788,-0.44485405105254167
Encode-Decode_Experiment-14-1,2409918,encoding,1.515797,0.45,0.28035,0.111921,20,9,False,0.095327,0.10184,20,11,33,31,0.9394,0.104578,0.589301,0.0,9799.0,1.0,2.0,What is the elephant on the right (from your perspective) doing with its trunk?,1.0,3591.0,4.0,4.0,Where are the elephants in the scene?,9.0,1.0,,,,,0.625,0.5,0.6,10.0,3.0,6.0,2.23749776,-0.72170076,1.4036877302463346,0.13678792892649555,0.11961782868341879,-0.6226893205422315,-0.18620026395985498,-1.1196259220961804,-1.3896471773138226,1.0205990341460938
Encode-Decode_Experiment-14-1,2356991,encoding,0.473833,0.2,0.15932,0.085853,25,5,False,0.155579,0.201171,8,24,33,32,0.9697,0.189783,0.714417,1.0,9904.0,2.0,2.0,What is the current action of the gloved player on the base?,1.0,6912.0,1.0,1.0,How is the player on the left (from your perspective) reaching the base?,10.0,2.0,,,,,0.375,0.2857142857142857,0.4,6.0,2.0,4.0,0.9599711999999999,-0.4861381999999999,1.1299679288759703,0.23763702187720387,-0.5972009772489645,-0.419444016447514,-0.18620026395985498,-0.06618376486741599,-0.1918968204503973,-0.4371444996195947
Encode-Decode_Experiment-14-1,2411268,encoding,2.938451,0.555556,0.221056,0.113835,18,10,False,0.157453,0.178419,16,11,33,27,0.8182,0.164798,0.803774,1.0,7538.0,2.0,2.0,What is the child holding while picking fruit?,1.0,7174.0,4.0,4.0,Where is the fruit branch relative to the child?,11.0,2.0,,,,,0.6111111111111112,0.3333333333333333,0.6428571428571429,11.0,2.0,9.0,1.9073307727272728,1.0311202272727273,1.2391389727298137,0.26263048542262296,1.0983322003267084,0.8896589685146041,-0.18620026395985498,-0.3750887856802871,0.6635283740750441,0.6438563457125034
Encode-Decode_Experiment-14-1,2370664,encoding,0.09714,0.173913,0.166087,0.080565,23,4,False,0.23596,0.091393,12,23,37,35,0.9459,0.147265,0.779055,1.0,3149.0,4.0,4.0,How many donuts are in the scene?,1.0,5105.0,1.0,1.0,Where are the people located in the scene?,12.0,2.0,,,,,0.35,0.14285714285714285,0.35714285714285715,7.0,1.0,5.0,1.0494850833333333,-0.9523450833333333,1.432874922145287,0.23109694308114348,-0.8563468080675792,-0.8216911298008999,0.525785792089579,-0.5918601176759671,0.4268904455023041,-0.3350031518800823
Encode-Decode_Experiment-14-1,2387122,encoding,0.509501,0.5,0.435455,0.126684,22,11,False,0.114624,0.070043,21,8,34,29,0.8529,0.109765,0.725705,1.0,9959.0,1.0,1.0,What is the polar bear doing next to the enclosure edge?,1.0,3811.0,3.0,3.0,Where is the polar bear located in the scene?,13.0,2.0,,,,,0.6470588235294118,0.8,0.5833333333333334,11.0,4.0,7.0,0.95913252,-0.44963152000000006,0.8077495096045205,0.1703801241070615,-0.5726631878723677,-0.3879457542530103,-0.008203749947496489,-1.0554958303228619,-0.0838354531730352,-0.4381014897794693
Encode-Decode_Experiment-14-1,2374670,encoding,1.280649,0.478261,0.332348,0.113937,23,11,False,0.249489,0.191983,18,9,32,27,0.8438,0.235517,0.714158,1.0,11581.0,3.0,3.0,Where is the man standing relative to the vehicle?,1.0,5812.0,1.0,1.0,What vehicle sprays water in the scene?,15.0,2.0,,,,,0.3684210526315789,0.2857142857142857,0.36363636363636365,7.0,2.0,4.0,1.4215436399999999,-0.14089463999999996,0.9526515902668666,0.18897085580323902,-0.0421521639241839,-0.12156504816434205,-0.3641967779722135,0.4992539866577328,-0.1943762582715204,0.08954062837841037
Encode-Decode_Experiment-14-1,2344622,encoding,0.544709,0.25,0.19535,0.100329,20,5,False,0.154286,0.213588,10,15,31,25,0.8065,0.213326,0.637996,1.0,4246.0,4.0,4.0,What is the cat resting its head on?,1.0,5657.0,2.0,2.0,Where is the cat located?,16.0,2.0,,,,,0.14285714285714285,0.2,0.1,2.0,1.0,1.0,0.570194875,-0.02548587499999999,1.119020083695564,0.224707736831677,-0.548441855351026,-0.021989421470436345,-0.542193291984572,0.2248929173418062,-0.923484147585694,-0.8819054425026165
Encode-Decode_Experiment-14-1,2356125,encoding,0.717822,0.296296,0.231481,0.090294,27,8,False,0.280217,0.247689,17,13,36,30,0.8333,0.255928,0.770429,0.0,6148.0,4.0,2.0,How many uniformed staff are moving the luggage?,1.0,4147.0,1.0,1.0,Where is the luggage being moved to?,17.0,1.0,,,,,0.0,0.0,0.0,0.0,0.0,0.0,0.6789982499999999,0.038823750000000046,0.937328047915491,0.2935832474587162,-0.4293488214732983,0.03349744914831667,0.3477892780772205,0.7516078141466864,0.34431272100420685,-0.7577534903442729
Encode-Decode_Experiment-14-1,2360001,encoding,2.320179,0.269231,0.1145,0.066689,26,7,False,0.371708,0.245339,14,17,32,31,0.9688,0.318284,0.631382,1.0,4558.0,4.0,4.0,Where are the men standing?,1.0,5194.0,4.0,4.0,What are the workers doing to the clock?,18.0,2.0,,,,,0.4,0.5714285714285714,0.36363636363636365,8.0,4.0,4.0,1.4038728,0.9163062,1.2583315202774465,0.20068632240389478,0.6729921724740893,0.7905964863978168,-0.3641967779722135,1.522553640754947,-0.9868007566548355,0.06937701413135482
Encode-Decode_Experiment-14-1,2367132,encoding,2.619632,0.428571,0.179952,0.094906,21,9,False,0.109982,0.086747,22,8,33,30,0.9091,0.100056,0.778068,1.0,7143.0,4.0,4.0,In which hand(s) are the men holding the controllers?,1.0,3069.0,2.0,2.0,How many men are playing in the scene?,19.0,2.0,,,,,0.5,0.6,0.4444444444444444,11.0,3.0,8.0,3.3087804166666666,-0.6891484166666664,1.3768064008305572,0.1544481949671963,0.8790007695972817,-0.5946028923773353,-0.18620026395985498,-1.1755342072318937,0.4174417770488346,2.243004434149019
Encode-Decode_Experiment-14-1,2371471,encoding,-0.129305,0.333333,0.347542,0.109883,24,8,False,0.352704,0.488962,19,13,32,32,1.0,0.408059,0.83106,1.0,9321.0,2.0,2.0,What stunt is one motorcyclist performing?,1.0,5747.0,3.0,3.0,What is nearest to the motorcyclists?,21.0,2.0,,,,,0.5,0.4,0.4666666666666667,10.0,2.0,7.0,1.6010008636363637,-1.7303058636363637,1.2530896461688035,0.21932342966135415,-1.0121295745636947,-1.4929220561690504,-0.3641967779722135,2.632497536831613,0.9247404991220042,0.29431336307869904
Encode-Decode_Experiment-14-1,2349475,encoding,-0.367195,0.068966,0.089241,0.055218,29,2,False,0.111236,0.069909,4,29,35,33,0.9429,0.077785,0.694735,0.0,6205.0,2.0,1.0,What is the man doing to power the blender?,1.0,3986.0,3.0,3.0,Which part of the blender is the woman holding?,27.0,1.0,,,,,0.4,0.2,0.46153846153846156,8.0,2.0,6.0,1.34448224,-1.71167724,1.2723044603624847,0.14645571126562063,-1.175785925208491,-1.4768491272798465,0.16979276406486202,-1.4508843660681336,-0.3803149486177453,0.0016083997498870018
Encode-Decode_Experiment-14-1,2410309,encoding,0.556816,0.291667,0.238125,0.096157,24,7,False,0.138473,0.263642,14,16,32,30,0.9375,0.204776,0.632945,1.0,3562.0,4.0,4.0,How many laptops or electronic devices are visible?,1.0,4495.0,2.0,2.0,What is the baby touching?,30.0,2.0,,,,,0.29411764705882354,0.14285714285714285,0.3333333333333333,5.0,1.0,4.0,0.21159204000000004,0.34522395999999994,0.9293689629549485,0.2249985373471005,-0.540112848510652,0.29786205724280856,-0.3641967779722135,0.11918397485831453,-0.9718379716570933,-1.291095341389176
Encode-Decode_Experiment-14-1,150472,encoding,1.234119,0.363636,0.240136,0.100071,22,8,False,0.095566,0.081963,18,13,31,31,1.0,0.089862,0.554652,1.0,2356.0,4.0,4.0,How many women are in the scene?,1.0,3474.0,2.0,2.0,Where is the pizza slice located?,31.0,2.0,,,,,0.375,0.25,0.5,6.0,1.0,5.0,1.150756347826087,0.08336265217391303,1.4947937518299248,0.18270380898651734,-0.07416246278291007,0.07192597835254086,-0.542193291984572,-1.3015689393578258,-1.721346177561279,-0.2194458432550575
Encode-Decode_Experiment-14-1,2386442,encoding,3.735814,0.692308,0.293846,0.10666,26,18,False,0.114149,0.106087,26,7,33,33,1.0,0.112439,0.812552,1.0,5893.0,3.0,3.0,What is the person on the right wearing?,1.0,5111.0,1.0,1.0,Who is brushing their teeth in the scene?,32.0,2.0,,,,,0.0,0.0,0.0,0.0,0.0,0.0,2.808329,0.9274849999999999,1.4245428094218986,0.2774649513164166,1.6468778252759992,0.8002416465005683,-0.18620026395985498,-1.0224355131063874,0.7475612126612139,1.6719557847888746
Encode-Decode_Experiment-14-1,2394020,encoding,3.142319,0.636364,0.301136,0.106681,22,14,False,0.276657,0.296235,19,8,33,27,0.8182,0.293586,0.810172,0.0,5297.0,4.0,1.0,Where is the scene taking place?,1.0,4901.0,2.0,2.0,What are the riders wearing on their heads?,33.0,1.0,,,,,0.6,0.2857142857142857,0.75,12.0,2.0,9.0,1.87165164,1.27066736,1.0342693856012917,0.1998541134594599,1.2385831267769727,1.0963421945594058,-0.18620026395985498,1.2171969785962002,0.724777189440083,0.6031440610117066
Encode-Decode_Experiment-14-1,2385851,encoding,0.548615,0.136364,0.0995,0.067194,22,3,False,0.125317,0.240421,6,18,27,24,0.8889,0.226293,0.878951,1.0,2432.0,2.0,2.0,What are the men doing with the suitcases?,1.0,9734.0,3.0,3.0,Where are the men?,35.0,2.0,,,,,0.8125,0.5714285714285714,1.0,13.0,4.0,9.0,-0.3014092272727273,0.8500242272727272,0.884229601566618,0.18298126367784998,-0.5457547238800999,0.7334078580226101,-1.254179348034006,0.3852119649656005,1.3832067411737508,-1.8764642124523512
Encode-Decode_Experiment-14-1,2385550,encoding,-0.836359,0.095238,0.175429,0.095881,21,2,False,0.368029,0.282615,4,22,27,26,0.963,0.288785,0.77207,1.0,2935.0,4.0,4.0,Where are the tangerines in the scene?,1.0,6075.0,3.0,3.0,Which side of the frame is the boy on? (from your perspective),36.0,2.0,,,,,0.3888888888888889,0.5,0.35714285714285715,7.0,2.0,5.0,1.82361632,-2.65997532,1.3291001612144937,0.2042747449101898,-1.4985471513798951,-2.2950484694929583,-1.254179348034006,1.1578392437583938,0.3600222092839863,0.5483325374670487
Encode-Decode_Experiment-14-1,2345035,encoding,-0.717731,0.1,0.1709,0.098784,20,2,False,0.109165,0.162186,5,19,33,24,0.7273,0.143989,0.69,0.0,7745.0,4.0,3.0,What are the people doing with the football?,1.0,5836.0,2.0,2.0,Who runs toward the football in the scene?,44.0,1.0,,,,,0.47619047619047616,0.2,0.5333333333333333,10.0,1.0,8.0,0.49328904,-1.21102004,1.24529052422522,0.2321196304141944,-1.4169370561077486,-1.0448779988407189,-0.18620026395985498,-0.6323633335327998,-0.4256436670849947,-0.9696601610269036
Encode-Decode_Experiment-14-1,2379478,encoding,2.698042,0.521739,0.234739,0.106373,23,12,False,0.344475,0.329327,20,8,33,28,0.8485,0.350471,0.676288,0.0,3323.0,3.0,4.0,What is the position of the babies?,1.0,1994.0,2.0,2.0,How many babies are visible in the scene?,45.0,1.0,,,,,0.5625,0.8,0.5,9.0,4.0,5.0,2.318576956521739,0.37946504347826115,1.1559328518651655,0.2577925144752665,0.9329429044245483,0.32740554422168927,-0.18620026395985498,1.9205014456340292,-0.5569102748195068,1.1131158382213704
Encode-Decode_Experiment-14-1,2412687,encoding,-0.388971,0.375,0.430187,0.141881,16,6,False,0.136834,0.129977,12,11,28,23,0.8214,0.129204,0.450805,1.0,2710.0,4.0,4.0,What is the dog biting onto in the scene?,1.0,7457.0,3.0,3.0,What is the human's body position?,46.0,2.0,,,,,0.0,0.0,0.0,0.0,0.0,0.0,1.392583090909091,-1.781554090909091,1.121179392943873,0.2673871939639434,-1.1907667175563876,-1.537139445962915,-1.0761828340216475,-0.8151594405057154,-2.7154858664036023,0.05649469845928904
Encode-Decode_Experiment-14-1,2348899,encoding,4.824092,0.730769,0.279808,0.093481,26,19,False,0.204805,0.124355,31,1,32,32,1.0,0.202291,0.79419,1.0,4351.0,1.0,1.0,Where is the woman located relative to the man? (from your perspective),1.0,4085.0,4.0,4.0,What is the woman doing?,58.0,2.0,,,,,0.5652173913043478,0.3333333333333333,0.6470588235294118,13.0,2.0,11.0,3.18626444,1.6378275600000003,1.4031198497847597,0.13863135122977524,2.395558332935076,1.4131310191522328,-0.3641967779722135,0.08846038163358012,0.5717796015744917,2.103205483300732
Encode-Decode_Experiment-15-1,2347025,encoding,-0.104589,0.785714,0.798929,0.126345,14,11,False,0.067175,0.083575,42,2,49,44,0.898,0.079173,0.742178,1.0,6200.0,2.0,2.0,Who is holding the umbrella in the scene?,1.0,2622.0,1.0,1.0,Where is the baby in relation to the mother?,1.0,2.0,,,,,0.6,0.5,0.5833333333333334,9.0,2.0,7.0,0.86848204,-0.97307104,1.3737290961395456,0.16966197330334568,-0.9951262101409079,-0.839573654788617,2.6617439602378807,-1.4337236628906966,0.07386253612178846,-0.541539770587311
Encode-Decode_Experiment-15-1,2374670,encoding,0.823044,0.416667,0.323792,0.112843,24,10,False,0.230862,0.247911,25,9,35,34,0.9714,0.242316,0.729898,1.0,7792.0,1.0,1.0,What vehicle sprays water in the scene?,0.0,4486.0,2.0,3.0,Where is the man standing relative to the vehicle?,2.0,1.0,,,,,0.42105263157894735,0.42857142857142855,0.36363636363636365,8.0,3.0,4.0,1.4215436399999999,-0.5984996399999999,0.9526515902668666,0.18897085580323902,-0.35696137968277836,-0.5163903861988036,0.16979276406486202,0.5833142322653657,-0.04369536520404367,0.08954062837841037
Encode-Decode_Experiment-15-1,2369373,encoding,1.50858,0.4375,0.250875,0.123709,16,7,False,0.185941,0.287374,21,10,37,31,0.8378,0.191001,0.665833,1.0,4360.0,3.0,3.0,What tool is the chef using?,1.0,3235.0,3.0,3.0,What is the appearance of the oven?,3.0,2.0,,,,,0.6666666666666666,0.5,0.6666666666666666,10.0,2.0,8.0,1.0857792916666666,0.4228007083333334,1.1744307155537281,0.30599341805477037,0.11465289580434232,0.36479591042256565,0.525785792089579,-0.05112487692064489,-0.6569972339694725,-0.29358902463793607
Encode-Decode_Experiment-15-1,2371471,encoding,0.760647,0.45,0.35825,0.120621,20,9,False,0.214091,0.578966,21,17,38,38,1.0,0.377325,0.822632,1.0,5313.0,2.0,2.0,What stunt is one motorcyclist performing?,1.0,8140.0,3.0,3.0,What is nearest to the motorcyclists?,4.0,2.0,,,,,0.5,0.4,0.4666666666666667,10.0,2.0,7.0,1.6010008636363637,-0.8403538636363638,1.2530896461688035,0.21932342966135415,-0.39988737619874526,-0.725064189156135,0.7037823061019375,2.252514070365222,0.8440582521860013,0.29431336307869904
Encode-Decode_Experiment-15-1,2349475,encoding,0.74524,0.285714,0.209952,0.101661,21,6,False,0.088462,0.044051,16,19,37,35,0.9459,0.068249,0.662849,1.0,4076.0,3.0,3.0,Which part of the blender is the woman holding?,1.0,4491.0,1.0,1.0,What is the man doing to power the blender?,5.0,2.0,,,,,0.7,0.7,0.5384615384615384,14.0,7.0,7.0,1.34448224,-0.59924224,1.2723044603624847,0.14645571126562063,-0.41048661700073097,-0.5170311075546115,0.525785792089579,-1.568783836889488,-0.6855634210668896,0.0016083997498870018
Encode-Decode_Experiment-15-1,2356125,encoding,0.744871,0.28,0.216,0.085921,25,7,False,0.289355,0.192174,15,25,45,40,0.8889,0.230506,0.749757,1.0,7624.0,1.0,1.0,Where is the luggage being moved to?,1.0,5413.0,2.0,2.0,How many uniformed staff are moving the luggage?,6.0,2.0,,,,,0.5,0.42857142857142855,0.5384615384615384,10.0,3.0,7.0,0.6789982499999999,0.06587275000000004,0.937328047915491,0.2935832474587162,-0.4107404704346203,0.056835547657935546,1.949757904188447,0.43729989182910356,0.14641720502638822,-0.7577534903442729
Encode-Decode_Experiment-15-1,2386442,encoding,5.329251,0.708333,0.202167,0.094979,24,17,False,0.119667,0.143727,49,4,53,53,1.0,0.121483,0.848472,1.0,4191.0,3.0,3.0,What is the person on the right wearing?,1.0,2598.0,1.0,1.0,Who is brushing their teeth in the scene?,7.0,2.0,,,,,0.4444444444444444,0.3333333333333333,0.46153846153846156,8.0,2.0,6.0,2.808329,2.520922,1.4245428094218986,0.2774649513164166,2.7430823080301816,2.1750721272899356,3.3737300162873147,-0.9106189428349603,1.091427647158274,1.6719557847888746
Encode-Decode_Experiment-15-1,2385550,encoding,-0.241808,0.076923,0.098077,0.087482,13,1,False,0.219235,0.15114,7,30,38,37,0.9737,0.176826,0.77019,1.0,3406.0,4.0,4.0,Where are the tangerines in the scene?,1.0,3460.0,3.0,3.0,Which side of the frame is the boy on? (from your perspective),9.0,2.0,,,,,0.7222222222222222,0.5,0.7857142857142857,13.0,2.0,11.0,1.82361632,-2.06542432,1.3291001612144937,0.2042747449101898,-1.0895259780131525,-1.7820650021931532,0.7037823061019375,-0.226379176301171,0.3420247455630934,0.5483325374670487
Encode-Decode_Experiment-15-1,2362704,encoding,-0.729997,0.190476,0.26981,0.108676,21,4,False,0.178577,0.16486,13,21,34,34,1.0,0.170104,0.777631,1.0,1438.0,2.0,2.0,How many bears are in the scene?,1.0,2827.0,4.0,4.0,What are the bears doing with the pumpkins?,11.0,2.0,,,,,0.4444444444444444,0.2,0.42857142857142855,4.0,1.0,3.0,0.28402952,-1.01402652,0.9964806795304295,0.21728616172690426,-1.4253754469480913,-0.8749103780223308,-0.008203749947496489,-0.30948742324550244,0.41325832404562685,-1.2084393157702005
Encode-Decode_Experiment-15-1,2410309,encoding,0.413012,0.25,0.201,0.11864,16,4,False,0.325309,0.279604,6,23,30,29,0.9667,0.288897,0.769911,1.0,4005.0,2.0,2.0,What is the baby touching?,1.0,3441.0,4.0,4.0,How many laptops or electronic devices are visible?,12.0,2.0,,,,,0.5882352941176471,0.2857142857142857,0.6666666666666666,10.0,2.0,8.0,0.21159204000000004,0.20141995999999995,0.9293689629549485,0.2249985373471005,-0.6390427650608403,0.17378678946665294,-0.7201898059969305,1.1592239690868327,0.3393538453619606,-1.291095341389176
Encode-Decode_Experiment-15-1,2412687,encoding,2.720342,0.647059,0.313882,0.122476,17,11,False,0.14633,0.40504,30,2,35,32,0.9143,0.15471,0.526264,1.0,3573.0,4.0,4.0,What is the dog biting onto in the scene?,1.0,4651.0,3.0,3.0,What is the human's body position?,13.0,2.0,,,,,0.6,1.0,0.5555555555555556,9.0,4.0,5.0,1.392583090909091,1.327758909090909,1.121179392943873,0.2673871939639434,0.9482841824075613,1.145601250226912,0.16979276406486202,-0.49981297419180387,-1.993107879746763,0.05649469845928904
Encode-Decode_Experiment-15-1,2409918,encoding,2.357866,0.521739,0.277652,0.10352,23,12,False,0.12614,0.121713,23,9,39,32,0.8205,0.14756,0.584428,0.0,6143.0,4.0,2.0,What is the elephant on the right (from your perspective) doing with its trunk?,1.0,5553.0,4.0,4.0,Where are the elephants in the scene?,14.0,1.0,,,,,0.6875,0.5,0.8,11.0,3.0,8.0,2.23749776,0.1203682399999999,1.4036877302463346,0.13678792892649555,0.6989189322653813,0.10385470230135851,0.881778820114296,-0.5882128500698117,-1.4362969862031374,1.0205990341460938
Encode-Decode_Experiment-15-1,2344622,encoding,1.846181,0.388889,0.193167,0.106015,18,7,False,0.164272,0.119036,15,16,35,31,0.8857,0.154646,0.606322,1.0,5472.0,2.0,2.0,Where is the cat located?,1.0,3186.0,4.0,4.0,What is the cat resting its head on?,15.0,2.0,,,,,0.7142857142857143,0.8,0.6,10.0,4.0,6.0,0.570194875,1.2759861250000002,1.119020083695564,0.224707736831677,0.3469053975237669,1.100931268518499,0.16979276406486202,-0.5006042458080544,-1.2267031188067377,-0.8819054425026165
Encode-Decode_Experiment-15-1,150472,encoding,1.306447,0.423077,0.290346,0.101597,26,11,False,0.069874,0.099435,27,12,39,39,1.0,0.07897,0.62422,1.0,4101.0,2.0,2.0,Where is the pizza slice located?,1.0,2987.0,4.0,4.0,How many women are in the scene?,16.0,2.0,,,,,0.5,0.25,0.7,8.0,1.0,7.0,1.150756347826087,0.15569065217391298,1.4947937518299248,0.18270380898651734,-0.024404437941862426,0.1343311685260672,0.881778820114296,-1.4362334775484917,-1.055363434936237,-0.2194458432550575
Encode-Decode_Experiment-15-1,2385851,encoding,-1.46333,0.05,0.19455,0.098782,20,1,False,0.317342,0.201548,3,28,37,31,0.8378,0.242951,0.899526,1.0,5086.0,3.0,3.0,Where are the men?,1.0,2998.0,2.0,2.0,What are the men doing with the suitcases?,21.0,2.0,,,,,0.6875,0.5714285714285714,0.7777777777777778,11.0,4.0,7.0,-0.3014092272727273,-1.1619207727272727,0.884229601566618,0.18298126367784998,-1.92987165354526,-1.002514749317224,0.525785792089579,0.5911651303328531,1.5801736646085232,-1.8764642124523512
Encode-Decode_Experiment-15-1,2383555,encoding,1.462279,0.1,0.0349,0.04452,20,2,False,0.168497,0.179873,10,35,49,45,0.9184,0.184244,0.730125,1.0,3426.0,2.0,2.0,Who is holding the child in the boat?,1.0,5662.0,4.0,4.0,What is the woman at the back doing in the boat?,22.0,2.0,,,,,0.5238095238095238,0.3,0.7272727272727273,11.0,3.0,8.0,0.16603777272727271,1.2962412272727275,0.9647251812359597,0.2505405411716091,0.08280013742355832,1.1184075364826869,2.6617439602378807,-0.1346658505301135,-0.041522267190936074,-1.3430758172802229
Encode-Decode_Experiment-15-1,2397102,encoding,2.239179,0.6,0.33215,0.11962,20,12,False,0.108911,0.125918,31,4,35,35,1.0,0.110855,0.600496,1.0,2329.0,1.0,1.0,What are the couple doing with the cake?,1.0,3435.0,3.0,3.0,What is the man holding besides the cake knife?,23.0,2.0,,,,,0.7619047619047619,1.0,0.5789473684210527,16.0,5.0,11.0,2.27765524,-0.03847624000000005,1.2432531819164083,0.23108201096190967,0.6172682479618,-0.03319761467705791,0.16979276406486202,-1.0420194856085923,-1.282476110103505,1.066421413605919
Encode-Decode_Experiment-15-1,2348899,encoding,2.156522,0.5,0.255389,0.113428,18,9,False,0.190768,0.093918,20,14,34,34,1.0,0.150888,0.796219,1.0,4196.0,1.0,1.0,Where is the woman located relative to the man? (from your perspective),1.0,2770.0,4.0,4.0,What is the woman doing?,25.0,2.0,,,,,0.6521739130434783,0.6666666666666666,0.6470588235294118,15.0,4.0,11.0,3.18626444,-1.0297424400000001,1.4031198497847597,0.13863135122977524,0.5604043908209072,-0.8884702023829095,-0.008203749947496489,-0.5470667260247754,0.591203460026456,2.103205483300732
Encode-Decode_Experiment-15-1,2360001,encoding,0.797404,0.217391,0.152087,0.081896,23,5,False,0.413988,0.240979,12,21,33,33,1.0,0.303891,0.559778,0.0,3772.0,1.0,4.0,What are the workers doing to the clock?,0.0,4063.0,1.0,4.0,Where are the men standing?,26.0,0.0,,,,,0.65,0.5714285714285714,0.8181818181818182,13.0,4.0,9.0,1.4038728,-0.6064688,1.2583315202774465,0.20068632240389478,-0.3746004096148166,-0.5232662426489096,-0.18620026395985498,1.344604072431567,-1.6722743695648445,0.06937701413135482
Encode-Decode_Experiment-15-1,2370664,encoding,1.268825,0.238095,0.139095,0.078025,21,5,False,0.199412,0.103866,10,31,41,41,1.0,0.12717,0.802095,1.0,2589.0,1.0,1.0,Where are the people located in the scene?,1.0,2830.0,4.0,4.0,How many donuts are in the scene?,27.0,2.0,,,,,0.65,0.7142857142857143,0.5714285714285714,13.0,5.0,8.0,1.0494850833333333,0.21933991666666675,1.432874922145287,0.23109694308114348,-0.05028648100360735,0.18924827469622785,1.237771848139013,-0.840307041559683,0.6474551072732467,-0.3350031518800823
Encode-Decode_Experiment-15-1,2350974,encoding,1.187243,0.409091,0.278227,0.110225,22,9,False,0.187802,0.212155,21,20,45,41,0.9111,0.192998,0.73306,1.0,4588.0,4.0,4.0,Between which two objects is the child standing?,1.0,2251.0,1.0,1.0,What is the child up against?,28.0,2.0,,,,,0.75,0.5,0.7,9.0,2.0,7.0,1.8882654,-0.7010224,1.2442143057663109,0.38083073836292586,-0.10641079223276279,-0.604847862347941,1.949757904188447,-0.026434729769822276,-0.013425162924541859,0.6221014760430896
Encode-Decode_Experiment-15-1,2356991,encoding,-0.764326,0.173913,0.254956,0.106033,23,4,False,0.077566,0.240647,14,28,42,42,1.0,0.186287,0.698561,1.0,5553.0,2.0,2.0,What is the current action of the gloved player on the base?,1.0,12279.0,1.0,1.0,How is the player on the left (from your perspective) reaching the base?,30.0,2.0,,,,,0.5,0.5714285714285714,0.4,8.0,4.0,4.0,0.9599711999999999,-1.7242971999999999,1.1299679288759703,0.23763702187720387,-1.4489920716960216,-1.4877377320218867,1.4157683621513715,-0.10940697690511048,-0.3436881953219281,-0.4371444996195947
Encode-Decode_Experiment-15-1,2387122,encoding,1.388081,0.555556,0.360833,0.140282,18,10,False,0.127178,0.047365,25,3,31,28,0.9032,0.128996,0.762067,1.0,2723.0,3.0,3.0,Where is the polar bear located in the scene?,1.0,9753.0,1.0,1.0,What is the polar bear doing next to the enclosure edge?,33.0,2.0,,,,,0.6470588235294118,0.4,0.75,11.0,2.0,9.0,0.95913252,0.42894847999999985,0.8077495096045205,0.1703801241070615,0.03175564667093048,0.3701002581164288,-0.542193291984572,-0.8177310732585303,0.26426229992223543,-0.4381014897794693
