SubjectID,StimID,Phase,svg_z_dec,svg_obs,svg_null_mean,svg_null_std,n_transitions,n_relational,low_n_dec,mean_salience_relational_dec,mean_salience_nonrelational,n_relational_fixations,n_nonrelational_fixations,n_fixations_dec,n_aoi,aoi_prop_dec,mean_salience_dec,mean_meaning_dec,enc_q1_accuracy,enc_q1_rt_ms,enc_q1_response,enc_q1_correct_key,enc_q1_question,enc_q2_accuracy,enc_q2_rt_ms,enc_q2_response,enc_q2_correct_key,enc_q2_question,enc_trial_index,enc_total_correct,dec_free_response,dec_rt_ms,dec_trial_index,dec_cue_question,prop_total,prop_relations,prop_objects,n_total_recalled,n_relations_recalled,n_objects_recalled,svg_z_dec_image_mean,svg_z_dec_within,svg_z_dec_z,svg_z_dec_within_z,n_fixations_dec_z,mean_salience_dec_z,mean_meaning_dec_z,svg_z_dec_image_mean_z
Encode-Decode_Experiment-1-1,2362704,decoding,,0.0,0.0,0.0,7,0,False,,0.105714,0,15,19,15,0.7895,0.088457,0.640101,,,,,,,,,,,,,two bears eating a pumpkin. two black bears.half eaten pumpkin,55163.0,1.0,Which description best matches the image?,0.6666666666666666,0.2,0.7142857142857143,6,1,5,-0.3286689166666667,,,,1.336587500204589,-0.6035252272608148,-0.06477636926070096,-1.486776497235311
Encode-Decode_Experiment-1-1,2367132,decoding,0.318221,0.75,0.6645,0.268682,4,3,False,0.060864,,10,0,10,10,1.0,0.060864,0.654293,,,,,,,,,,,,,"two men playing v'deo games, a small child sitting on a sofa in the background. two blonde men with wii controllers",63967.0,2.0,Which description best matches the image?,0.5,0.6,0.4444444444444444,11,3,8,-0.01209007692307691,0.3303110769230769,0.08448638642804077,0.3419826506966446,-0.6460239793843857,-0.8738896115337228,0.02419670160404594,-0.6481168033220155
Encode-Decode_Experiment-1-1,2412687,decoding,,0.0,0.0,0.0,4,0,False,,0.063599,0,12,14,12,0.8571,0.065487,0.372966,,,,,,,,,,,,,a man playing with a dog' the dog is trying to grab the red frisbee' at night,35594.0,3.0,Which description best matches the image?,0.4666666666666667,0.5,0.4444444444444444,7,2,4,-0.089918,,,,0.23513667821071418,-0.828592088665834,-1.7395101125987924,-0.854293382269824
Encode-Decode_Experiment-1-1,2408717,decoding,-0.481428,0.25,0.3385,0.183828,8,2,False,0.059474,0.047311,4,20,26,24,0.9231,0.048856,0.577167,,,,,,,,,,,,,"four women on a beach with surfboards, the ones closer to the photographer had neon green surfboards",51079.0,6.0,Which description best matches the image?,0.5,0.2857142857142857,0.5555555555555556,8,2,5,0.2959471818181818,-0.7773751818181818,-0.6953777301913334,-0.8048438088737755,2.878618650996014,-0.9915475510962597,-0.4593247938521604,0.1679150999443987
Encode-Decode_Experiment-1-1,2370664,decoding,-0.541137,0.5,0.6505,0.278118,4,2,False,0.154614,0.159884,7,9,17,16,0.9412,0.159114,0.888496,,,,,,,,,,,,,"two men and one woman eating donut in the street, the woman was standing in the middle of the two men, she had a red shirt on.",54622.0,7.0,Which description best matches the image?,0.7,0.5714285714285714,0.6428571428571429,14,4,9,-0.1374644,-0.4036726,-0.7536094125159861,-0.4179364102698721,0.8960071714070391,0.08879298024003182,1.4924717943137655,-0.9802501559536738
Encode-Decode_Experiment-1-1,2356991,decoding,,0.0,0.0,0.0,6,0,False,,0.115091,0,18,20,18,0.9,0.10691,0.5985,,,,,,,,,,,,,"two baseball player in the middle of a game, the player on the left is diving head first to grab the ball, the player on the right is trying to catch the ball with a focused face",79990.0,8.0,Which description best matches the image?,0.6875,0.5714285714285714,0.5,11,4,5,-0.243275,,,,1.556877664603364,-0.4227172693371395,-0.32558307170181855,-1.2605565891968293
Encode-Decode_Experiment-1-1,2409918,decoding,-0.921624,0.181818,0.328818,0.159501,11,2,False,0.072718,0.092482,4,13,20,17,0.85,0.088457,0.505574,,,,,,,,,,,,,"two men sitting on top of two elephants, the elephants are in water the elephant on the right is eating plants.",58745.0,9.0,Which description best matches the image?,0.625,0.6666666666666666,0.6,10,4,6,-0.08443141176470587,-0.8371925882352942,-1.1246824184725444,-0.8667748691181962,1.556877664603364,-0.6035252272608148,-0.9081585778445388,-0.8397586761164787
Encode-Decode_Experiment-1-1,2374670,decoding,0.828019,0.5,0.336,0.198063,8,4,False,0.217528,0.201566,20,2,22,22,1.0,0.216077,0.86383,,,,,,,,,,,,,"a red spray vehicle, a man on the back of a spray vehicle",38925.0,10.0,Which description best matches the image?,0.21052631578947367,0.14285714285714285,0.2727272727272727,4,1,3,0.41830431249999994,0.4097146875,0.5816709848259924,0.4241919955146632,1.997457993400914,0.6469333209546209,1.3378346913015158,0.492055506324167
Encode-Decode_Experiment-1-1,2394020,decoding,1.555962,0.777778,0.499333,0.178953,9,7,False,0.316395,0.227608,21,1,23,22,0.9565,0.29959,0.812239,,,,,,,,,,,,,"two men wearing cowboy hats are on horses, the horses are walking alongside a shore",37777.0,11.0,Which description best matches the image?,0.3,0.14285714285714285,0.3333333333333333,6,1,4,0.7567956,0.7991664,1.2916032484119624,0.8274050218526021,2.217748157799689,1.4652184231103622,1.0143982694453182,1.3887642054810427
Encode-Decode_Experiment-1-1,2387122,decoding,0.315373,0.545455,0.494455,0.161713,11,6,False,0.160792,0.179697,14,3,20,17,0.85,0.150246,0.730465,,,,,,,,,,,,,a big polar bear in a zoo enclosure pawing at the glass that is seperating the photograper from the bear.the photographer had gray hair,61612.0,12.0,Which description best matches the image?,0.6470588235294118,0.4,0.6666666666666666,11,2,8,-0.041064222222222224,0.35643722222222224,0.08170885152943907,0.36903196586075016,1.556877664603364,0.0019016904298570735,0.5017373409719652,-0.7248731899701619
Encode-Decode_Experiment-1-1,2369373,decoding,0.250421,0.714286,0.666,0.192818,7,5,False,0.081628,0.329965,12,1,13,13,1.0,0.100731,0.671504,,,,,,,,,,,,,,47037.0,13.0,Which description best matches the image?,0.0,0.0,0.0,0,0,0,0.355155875,-0.104734875,0.018363891299811325,-0.10843569191360468,0.0148465138119392,-0.4832609409358167,0.13209661159933614,0.3247668482832589
Encode-Decode_Experiment-1-1,2385550,decoding,1.27053,0.888889,0.669444,0.172719,9,8,False,0.236058,,18,0,18,18,1.0,0.236058,0.778556,,,,,,,,,,,,,one boy and one girl is eating tangerines next to each other. the boy is on the left of the screne and the girl is on the right of the screen. both children has brown eyes,64294.0,14.0,Which description best matches the image?,0.5555555555555556,0.75,0.5,10,3,7,0.5623889375,0.7081410625,1.0132333954703576,0.7331632952693423,1.1162973358058141,0.8427130753182991,0.8032314186887457,0.8737549515491974
Encode-Decode_Experiment-1-1,2356125,decoding,,0.0,0.0,0.0,5,0,False,,0.071504,0,18,18,18,1.0,0.071504,0.499373,,,,,,,,,,,,,"four airport personnel (three woemn, one man) is standign next to a converyor belt, the two woman are putting the baggade on to converyor belt manually.",61707.0,15.0,Which description best matches the image?,0.7,0.5714285714285714,0.6923076923076923,14,4,9,-0.08454785714285713,,,,1.1162973358058141,-0.7696357410352724,-0.9470341424184039,-0.8400671554996145
Encode-Decode_Experiment-1-1,2350974,decoding,-0.436861,0.125,0.193375,0.156514,8,1,False,0.374164,0.190093,2,15,17,17,1.0,0.211749,0.765142,,,,,,,,,,,,,a child in between a red and blue car drinking something.,29496.0,16.0,Which description best matches the image?,0.5833333333333334,0.5,0.5,7,2,5,0.050771181818181806,-0.4876321818181818,-0.6519134051119853,-0.5048627120125481,0.8960071714070391,0.6045262954360783,0.7191358174641319,-0.4815889202277191
Encode-Decode_Experiment-1-1,2385851,decoding,0.106475,0.222222,0.205778,0.154444,9,2,False,0.180228,0.145542,7,8,16,15,0.9375,0.152109,0.907785,,,,,,,,,,,,,"two men carrying suitcases, both suitcases are red.",31718.0,17.0,Which description best matches the image?,0.3125,0.14285714285714285,0.4444444444444444,5,1,4,0.11946729999999998,-0.012992299999999984,-0.12202060256048546,-0.013451384174078842,0.6757170070082641,0.0201559160631854,1.613399187486687,-0.2996037139705413
Encode-Decode_Experiment-1-1,2347400,decoding,-1.108892,0.0,0.204167,0.184118,6,0,False,,0.069835,0,21,21,21,1.0,0.069835,0.63831,,,,,,,,,,,,,two men smelling red wine sitting on a couch. there is a pokemon ball in the background,31252.0,18.0,Which description best matches the image?,0.5,0.375,0.5,10,3,6,0.23851900000000004,-1.3474110000000001,-1.3073170411520911,-1.3950218976916904,1.777167829002139,-0.785989097225302,-0.0760045802189,0.01578016437939896
Encode-Decode_Experiment-1-1,2347025,decoding,2.153473,0.923077,0.602077,0.149062,13,12,False,0.08038,,18,0,19,18,0.9474,0.081798,0.756832,,,,,,,,,,,,,one woamn and a child posing for a picture. the child is on the womans back holding a umbrella.,44220.0,19.0,Which description best matches the image?,0.4,0.5,0.3333333333333333,6,2,4,0.8972498571428572,1.2562231428571429,1.8743306552934302,1.3006119088183121,1.336587500204589,-0.6687720809872416,0.6670384232359715,1.7608463206333176
Encode-Decode_Experiment-1-1,2410309,decoding,0.869228,0.533333,0.405733,0.146797,15,8,False,0.168944,0.189194,14,9,23,23,1.0,0.176868,0.558416,,,,,,,,,,,,,a woman and a child sitting together on a couch. both of them have a laptop on their laps.,36405.0,20.0,Which description best matches the image?,0.47058823529411764,0.2857142857142857,0.5,8,2,6,0.22219188235294118,0.6470361176470588,0.6218603934062168,0.669899201294233,2.217748157799689,0.2627519291901716,-0.5768793352687943,-0.027472554278168887
Encode-Decode_Experiment-1-1,150472,decoding,0.198436,0.333333,0.298778,0.174139,9,3,False,0.169721,0.152771,6,6,12,12,1.0,0.161246,0.65068,,,,,,,,,,,,,two women eating pizza from a paper plate in the middle of the street. the woman on the right wears glasses,38149.0,21.0,Which description best matches the image?,0.5,0.5,0.5,8,2,5,0.04589692857142856,0.15253907142857143,-0.03233489792203247,0.15792905423542924,-0.20544365058683578,0.10968294752411976,0.0015459332109844287,-0.4945014690869191
Encode-Decode_Experiment-1-1,2386442,decoding,-0.292939,0.357143,0.402286,0.154103,14,5,False,0.108614,0.095325,10,8,18,18,1.0,0.102708,0.812547,,,,,,,,,,,,,a woman a child and a man are brushing their teeth. the man on the r'ght is wearing a purple shirt.,66095.0,22.0,Which description best matches the image?,0.3888888888888889,0.3333333333333333,0.38461538461538464,7,2,5,0.054409249999999985,-0.34734824999999997,-0.5115523174446543,-0.35962183392809444,1.1162973358058141,-0.4638897095471479,1.0163291957295866,-0.4719511909648582
Encode-Decode_Experiment-1-1,2397102,decoding,-0.70186,0.0,0.094833,0.135117,6,0,False,,0.059363,0,19,21,19,0.9048,0.054078,0.355719,,,,,,,,,,,,,"one man and one woman is cutting a cake, the man on the right is holding a beer bottle in his other hand whilst cutting hte cake.",67717.0,23.0,Which description best matches the image?,0.5714285714285714,0.6,0.47368421052631576,12,3,9,-0.05528222222222222,-0.6465777777777778,-0.9103558105173789,-0.6694246659414474,1.777167829002139,-0.9403808488647833,-1.8476357152766598,-0.7625385738527899
Encode-Decode_Experiment-1-1,2345035,decoding,-0.963741,0.333333,0.527,0.200953,9,3,False,0.149258,0.26283,6,9,17,15,0.8824,0.196564,0.683097,,,,,,,,,,,,,two girls chasing a football. one has a jersey that has the number 20 on it.,28746.0,24.0,Which description best matches the image?,0.38095238095238093,0.2,0.4666666666666667,8,1,7,-0.19332016666666665,-0.7704208333333333,-1.1657573613533059,-0.7976437278142157,0.8960071714070391,0.4557391691654984,0.2047759246302697,-1.128219553446886
Encode-Decode_Experiment-1-1,2411268,decoding,1.847853,0.785714,0.493714,0.158021,14,11,False,0.084992,0.092541,19,1,20,20,1.0,0.08537,0.598203,,,,,,,,,,,,,a girl with pink boots picking apples form the tree above her head.,23197.0,25.0,Which description best matches the image?,0.4444444444444444,0.3333333333333333,0.42857142857142855,8,2,6,0.05513581818181817,1.7927171818181817,1.5762722930354731,1.8560630164103595,1.556877664603364,-0.6337725673199046,-0.32744503633307764,-0.4700264146612231
Encode-Decode_Experiment-1-1,2348899,decoding,0.12414,0.333333,0.3075,0.208098,6,2,False,0.118477,0.128816,7,9,17,16,0.9412,0.12461,0.797773,,,,,,,,,,,,,"a man at the center of the photograph, there is two toher men on the left side of the man with the pink tie. a woman is on thr roght of the man at the center. the woman is touching the pink tie on the mans neck.",71566.0,26.0,Which description best matches the image?,0.6086956521739131,0.6666666666666666,0.5882352941176471,14,4,10,0.666775,-0.542635,-0.10479266927965691,-0.5618090600818387,0.8960071714070391,-0.24928742837637158,0.9237074264965133,1.1502875944004063
Encode-Decode_Experiment-1-1,2360001,decoding,1.295706,0.25,0.100875,0.115092,8,2,False,0.084079,0.11166,7,11,19,18,0.9474,0.095826,0.341576,,,,,,,,,,,,,four people fixing a clock standing on a scaffold.,24145.0,27.0,Which description best matches the image?,0.45,0.42857142857142855,0.5454545454545454,9,3,6,0.33658571428571427,0.9591202857142858,1.0377864918914241,0.9930108935519594,1.336587500204589,-0.5313215833037583,-1.936301593323455,0.27557200849808045
Encode-Decode_Experiment-1-1,2349475,decoding,2.117316,0.4,0.1397,0.122939,10,4,False,0.043002,0.070038,10,9,19,19,1.0,0.055809,0.641107,,,,,,,,,,,,,"there is a blender at the center of the oicture, the man on the left pf the blender is riding a bike, there is a woman on the left of the belnder holding the lid of the belnder, and there is a person in the background.",77043.0,28.0,Which description best matches the image?,0.6,0.5,0.5384615384615384,12,5,7,0.8152660666666667,1.3020499333333335,1.8390682503324955,1.348057993357636,1.336587500204589,-0.9234199983165862,-0.058469512630914384,1.543660293031781
Encode-Decode_Experiment-1-1,2379478,decoding,,0.0,0.0,0.0,8,0,False,,0.499424,0,22,24,22,0.9167,0.458496,0.719609,,,,,,,,,,,,,two baby gitls lying in a bed drinking milk form bottles.,22883.0,29.0,Which description best matches the image?,0.5625,0.8,0.5,9,4,5,-0.046197578947368416,,,,2.438038322198464,3.02222646309408,0.4336784586926747,-0.7384721386028178
Encode-Decode_Experiment-1-1,2383555,decoding,1.132425,0.375,0.195625,0.158399,8,3,False,0.175121,0.227028,9,7,17,16,0.9412,0.189631,0.756716,,,,,,,,,,,,,two women and one child on a wooden boat. the woman at the front of the boat is holding a childe and the woman at the back of the boat is rowing the boat.,57145.0,30.0,Which description best matches the image?,0.5238095238095238,0.4,0.6363636363636364,11,4,7,0.3537579230769231,0.7786670769230769,0.8785453838230992,0.8061813532168522,0.8960071714070391,0.3878075823078146,0.6663111912587801,0.3210634866408233
Encode-Decode_Experiment-10-1,2344622,decoding,,0.0,0.0,0.0,3,0,False,,0.169863,0,11,11,11,1.0,0.169863,0.557392,,,,,,,,,,,,,"cat laying on a blue blanket next to a keyboard while a hand is typing, brownish cat",25060.0,1.0,Which description best matches the image?,0.6428571428571429,0.6,0.6,9,3,6,0.16630163636363637,,,,-0.42573381498561075,0.19411486501332514,-0.5832990382398697,-0.1755332921092048
Encode-Decode_Experiment-10-1,2385550,decoding,-0.949832,0.0,0.166333,0.175119,6,0,False,,0.509965,0,11,12,11,0.9167,0.511118,0.878807,,,,,,,,,,,,,"two children holding quaters of tangerines in their mouths while smiling boy on left, girl on right look like siblings boy blonde girl brunette with a fringe",34491.0,2.0,Which description best matches the image?,0.8333333333333334,0.75,0.8571428571428571,15,3,12,0.5623889375,-1.5122209375,-1.1521924972716167,-1.5656554102351523,-0.20544365058683578,3.5378324004408324,1.4317291164946753,0.8737549515491974
Encode-Decode_Experiment-10-1,2385851,decoding,,0.0,0.0,0.0,7,0,False,,0.143913,0,10,10,10,1.0,0.143913,0.912387,,,,,,,,,,,,,two men carrying suitcases as they go through a covered walkway,22313.0,3.0,Which description best matches the image?,0.4375,0.2857142857142857,0.5555555555555556,7,2,5,0.11946729999999998,,,,-0.6460239793843857,-0.06015091876813953,1.64225023540943,-0.2996037139705413
Encode-Decode_Experiment-10-1,2411268,decoding,,1.0,1.0,0.0,3,3,False,0.106966,,8,0,8,8,1.0,0.106966,0.751518,,,,,,,,,,,,,"little girl standing under a tree picking apples, while carrying a brown basket, looks to be a large feild",24374.0,4.0,Which description best matches the image?,0.5555555555555556,0.6666666666666666,0.35714285714285715,10,4,5,0.05513581818181817,,,,-1.0866043081819357,-0.4221685647555687,0.6337236755911534,-0.4700264146612231
Encode-Decode_Experiment-10-1,2350974,decoding,,1.0,1.0,0.0,5,5,False,0.339673,,13,0,13,13,1.0,0.339673,0.920448,,,,,,,,,,,,,,6456.0,5.0,Which description best matches the image?,0.0,0.0,0.0,0,0,0,0.050771181818181806,,,,0.0148465138119392,1.8579635256657554,1.6927865885831006,-0.4815889202277191
Encode-Decode_Experiment-10-1,2408717,decoding,1.365532,1.0,0.6582,0.250305,5,5,False,0.056925,,8,0,8,8,1.0,0.056925,0.544568,,,,,,,,,,,,,"4 girls carrying surfboards walking towards the ocean, 2 surfboardsa are green 2 of them are white with a slight pattern, one girl was untying her hair",37199.0,6.0,Which description best matches the image?,0.8125,0.42857142857142855,1.0,13,3,9,0.2959471818181818,1.0695848181818182,1.1058848598091786,1.107378700932545,-1.0866043081819357,-0.9124850998695683,-0.6636957871666955,0.1679150999443987
Encode-Decode_Experiment-10-1,2371471,decoding,0.644135,0.5,0.33425,0.257322,4,2,False,0.069844,0.543372,9,2,11,11,1.0,0.15594,0.711683,,,,,,,,,,,,,"2 people doing a jump on a cycling track, onbe is doing a handstand on the bike, the other following it was a dirt track",38992.0,7.0,Which description best matches the image?,0.4,0.6,0.3333333333333333,8,3,5,1.3517034285714284,-0.7075684285714284,0.4023366353546158,-0.7325704272656534,-0.42573381498561075,0.05769318842028723,0.38398845307866725,2.9647546217086007
Encode-Decode_Experiment-10-1,2379478,decoding,0.27414,0.75,0.67625,0.269023,4,3,False,0.323656,,7,0,8,7,0.875,0.284705,0.805864,,,,,,,,,,,,,,4905.0,9.0,Which description best matches the image?,0.0,0.0,0.0,0,0,0,-0.046197578947368416,0.3203375789473684,0.041496036756249,0.3316567382076587,-1.0866043081819357,1.3193707856696255,0.9744318569056645,-0.7384721386028178
Encode-Decode_Experiment-10-1,2369373,decoding,1.456946,0.833333,0.502,0.227416,6,5,False,0.349859,,10,0,10,10,1.0,0.349859,0.795202,,,,,,,,,,,,,pizza chef placing a pizza into an open mouth oven that is a statue of somesort,24550.0,10.0,Which description best matches the image?,0.4666666666666667,0.25,0.5,7,1,6,0.355155875,1.101790125,1.1950370982996208,1.1407219853745179,-0.6460239793843857,1.9577689697350424,0.9075892074158154,0.3247668482832589
Encode-Decode_Experiment-10-1,2345035,decoding,,0.0,0.0,0.0,4,0,False,,0.459983,0,9,9,9,1.0,0.459983,0.785885,,,,,,,,,,,,,2 girls chasing after a foootball one of them was wearing a white kit with the number 20,25450.0,11.0,Which description best matches the image?,0.5238095238095238,0.4,0.6,11,2,9,-0.19332016666666665,,,,-0.8663141437831607,3.0367965293940036,0.8491786873166857,-1.128219553446886
Encode-Decode_Experiment-10-1,2409918,decoding,-1.936728,0.2,0.6646,0.239889,5,1,False,0.217689,0.096492,3,7,10,10,1.0,0.132851,0.615325,,,,,,,,,,,,,2 elephants in a river with 2 men sat on top of them the elephant on the right was eating from a plant,21642.0,12.0,Which description best matches the image?,0.6875,0.6666666666666666,0.6,11,4,6,-0.08443141176470587,-1.8522965882352942,-2.1146707561516926,-1.9177476669018165,-0.6460239793843857,-0.16853967022056995,-0.2201030888030469,-0.8397586761164787
Encode-Decode_Experiment-10-1,2349475,decoding,,0.0,0.0,0.0,6,0,False,,0.026821,0,11,11,11,1.0,0.026821,0.645224,,,,,,,,,,,,,"3 people standing around a blender, one man standing back, one lady holidng the lid and another man cycling in order for it to blend, there was some type of smoothie in the blender",37002.0,13.0,Which description best matches the image?,0.75,0.6,0.6923076923076923,15,6,9,0.8152660666666667,,,,-0.42573381498561075,-1.2074530056482666,-0.03265904668177636,1.543660293031781
Encode-Decode_Experiment-10-1,2386442,decoding,,0.0,0.0,0.0,4,0,False,,0.076709,0,8,8,8,1.0,0.076709,0.785313,,,,,,,,,,,,,"man, woman and child brushing their teeth",9236.0,14.0,Which description best matches the image?,0.2222222222222222,0.16666666666666666,0.23076923076923078,4,1,3,0.054409249999999985,,,,-1.0866043081819357,-0.7186356098374873,0.8455926813601872,-0.4719511909648582
Encode-Decode_Experiment-10-1,2348899,decoding,-1.125504,0.0,0.337,0.299421,3,0,False,,0.099821,0,11,11,11,1.0,0.099821,0.728523,,,,,,,,,,,,,"4 people, 3 guys chatting and a girl touching the tie that the man is wearing it is stripey and she is to the right of the men",33675.0,16.0,Which description best matches the image?,0.5652173913043478,0.5,0.5882352941176471,13,3,10,0.666775,-1.7922790000000002,-1.3235180277165477,-1.855609351395354,-0.42573381498561075,-0.4921773903863421,0.4895624745951798,1.1502875944004063
Encode-Decode_Experiment-10-1,2383555,decoding,,0.0,0.0,0.0,3,0,False,,0.228327,0,12,12,12,1.0,0.228327,0.728183,,,,,,,,,,,,,"3 people on a raft, their was a baby and then 2 women the women at the back was rowing",20114.0,17.0,Which description best matches the image?,0.3333333333333333,0.2,0.45454545454545453,7,2,5,0.3537579230769231,,,,-0.20544365058683578,0.7669624481732316,0.48743093259306497,0.3210634866408233
Encode-Decode_Experiment-10-1,2356125,decoding,-0.063111,0.285714,0.298286,0.199195,7,2,False,0.261817,0.324187,7,5,16,12,0.75,0.254019,0.655168,,,,,,,,,,,,,"4 workers, 2 of them security guards and 2 of them helping to put the luggage onto the conveyer belt, there were 3 bags on the conveyer",31054.0,18.0,Which description best matches the image?,0.45,0.42857142857142855,0.46153846153846156,9,3,6,-0.08454785714285713,0.021436857142857133,-0.2874107125725197,0.02219433055836282,0.6757170070082641,1.018700271561031,0.02968228763890008,-0.8400671554996145
Encode-Decode_Experiment-10-1,2374670,decoding,-0.290921,0.6,0.6696,0.23924,5,3,False,0.297333,0.334734,7,2,9,9,1.0,0.305645,0.90523,,,,,,,,,,,,,"red truck spraying water, man on the back of the truck holding on",14698.0,20.0,Which description best matches the image?,0.3684210526315789,0.42857142857142855,0.36363636363636365,7,3,4,0.41830431249999994,-0.7092253124999999,-0.5095842467194511,-0.7342858573477075,-0.8663141437831607,1.5245471059927038,1.5973812762649124,0.492055506324167
Encode-Decode_Experiment-10-1,2387122,decoding,,1.0,1.0,0.0,2,2,False,0.079368,,7,0,7,7,1.0,0.079368,0.758056,,,,,,,,,,,,,polar bear in water enclosure pressed against the glass with its paw,15265.0,22.0,Which description best matches the image?,0.4117647058823529,0.4,0.4166666666666667,7,2,5,-0.041064222222222224,,,,-1.3068944725807106,-0.6925819405089741,0.674711974443585,-0.7248731899701619
Encode-Decode_Experiment-10-1,2362704,decoding,1.128002,0.6,0.326,0.242907,5,3,False,0.164229,0.309578,7,2,9,9,1.0,0.196529,0.738694,,,,,,,,,,,,,bears eating the pumpkins,6800.0,23.0,Which description best matches the image?,0.3333333333333333,0.2,0.2857142857142857,3,1,2,-0.3286689166666667,1.4566709166666667,0.8742318175111203,1.508142524055858,-0.8663141437831607,0.45539622880201686,0.5533269266643269,-1.486776497235311
Encode-Decode_Experiment-10-1,2370664,decoding,,1.0,1.0,0.0,2,2,False,0.238518,,8,0,8,8,1.0,0.238518,0.973918,,,,,,,,,,,,,3 people eating donuts on a street,10185.0,24.0,Which description best matches the image?,0.25,0.14285714285714285,0.21428571428571427,5,1,3,-0.1374644,,,,-1.0866043081819357,0.8668168837230161,2.028002914621574,-0.9802501559536738
Encode-Decode_Experiment-10-1,2367132,decoding,,0.0,0.0,0.0,3,0,False,,0.047953,0,8,9,8,0.8889,0.049295,0.674974,,,,,,,,,,,,,2 men playing a vidoe game holding the remotes in both hands while girl in back watches,18748.0,25.0,Which description best matches the image?,0.5,0.6,0.4444444444444444,11,3,8,-0.01209007692307691,,,,-0.8663141437831607,-0.9872460991085885,0.15385087850327286,-0.6481168033220155
Encode-Decode_Experiment-10-1,2347400,decoding,,0.0,0.0,0.0,5,0,False,,0.139014,0,10,10,10,1.0,0.139014,0.621413,,,,,,,,,,,,,2 men sat on a sofa smelling red wine,13440.0,26.0,Which description best matches the image?,0.45,0.375,0.5,9,3,6,0.23851900000000004,,,,-0.6460239793843857,-0.10815277135948444,-0.1819359484828258,0.01578016437939896
Encode-Decode_Experiment-10-1,2410309,decoding,,0.0,0.0,0.0,2,0,False,,0.099338,0,8,8,8,1.0,0.099338,0.755152,,,,,,,,,,,,,"woman and baby sat on sofa, woman working on laptop and baby touching the keyboard there was a bottle of diet coke in the middle of them",27124.0,28.0,Which description best matches the image?,0.7647058823529411,0.7142857142857143,0.6666666666666666,13,5,8,0.22219188235294118,,,,-1.0866043081819357,-0.4969099674023902,0.6565060980490517,-0.027472554278168887
Encode-Decode_Experiment-10-1,2347025,decoding,,1.0,1.0,0.0,2,2,False,0.168791,,8,0,8,8,1.0,0.168791,0.897809,,,,,,,,,,,,,baby on womans back holding a redish pinky umbrella,14169.0,29.0,Which description best matches the image?,0.5333333333333333,0.5,0.5,8,2,6,0.8972498571428572,,,,-1.0866043081819357,0.1836110915946844,1.5508572374481644,1.7608463206333176
Encode-Decode_Experiment-11-1,2410309,decoding,0.766438,0.833333,0.666,0.218326,6,5,False,0.148439,,17,0,17,17,1.0,0.148439,0.580879,,,,,,,,,,,,,a woman with a laptop and beside her a baby touching a keyboard of a laptop. some drink plastic bottle in between them,25364.0,3.0,Which description best matches the image?,0.5294117647058824,0.42857142857142855,0.5,9,3,6,0.22219188235294118,0.5442461176470588,0.5216136194500117,0.563477106726407,0.8960071714070391,-0.015803830621900456,-0.4360533705820121,-0.027472554278168887
Encode-Decode_Experiment-11-1,2394020,decoding,1.496087,1.0,0.672333,0.219016,6,6,False,0.180755,,10,0,13,10,0.7692,0.139833,0.610078,,,,,,,,,,,,,two men riding horses on a beach wearing cowboy hats and boots,13614.0,4.0,Which description best matches the image?,0.3,0.14285714285714285,0.3333333333333333,6,1,4,0.7567956,0.7392913999999999,1.2332096732526299,0.7654143329504853,0.0148465138119392,-0.10012796685401147,-0.25299779728862526,1.3887642054810427
Encode-Decode_Experiment-11-1,2360001,decoding,3.366478,0.444444,0.092667,0.104494,9,4,False,0.26909,0.270097,11,4,15,15,1.0,0.269358,0.49631,,,,,,,,,,,,,4 men standing on something raising a big clock,23472.0,5.0,Which description best matches the image?,0.45,0.42857142857142855,0.5454545454545454,9,3,6,0.33658571428571427,3.0298922857142854,3.05732353439399,3.1369538219730693,0.4554268426094892,1.1689963354309303,-0.9662368281609859,0.27557200849808045
Encode-Decode_Experiment-11-1,150472,decoding,-0.6025,0.111111,0.205,0.155832,9,1,False,0.086486,0.120417,6,12,18,18,1.0,0.109106,0.7526,,,,,,,,,,,,,two women sharing a pizza pslice on a paper plate. on of them had glasses,25174.0,6.0,Which description best matches the image?,0.4375,0.25,0.6,7,1,6,0.04589692857142856,-0.6483969285714286,-0.8134541716391948,-0.671308096603915,1.1162973358058141,-0.401200211102685,0.6405069945508249,-0.4945014690869191
Encode-Decode_Experiment-11-1,2356125,decoding,,0.0,0.0,0.0,4,0,False,,0.084856,0,18,18,18,1.0,0.084856,0.513172,,,,,,,,,,,,,two uniformed officers keeping bags on the conveyor belt. four officers in total but only two helping with the bags,40600.0,7.0,Which description best matches the image?,0.45,0.42857142857142855,0.46153846153846156,9,3,6,-0.08454785714285713,,,,1.1162973358058141,-0.6388088915150366,-0.8605248833384546,-0.8400671554996145
Encode-Decode_Experiment-11-1,2356991,decoding,,0.0,0.0,0.0,7,0,False,,0.032614,0,16,16,16,1.0,0.032614,0.534221,,,,,,,,,,,,,one boy sliding towards the base headfirst. the other boy trying to catch the ball,30802.0,8.0,Which description best matches the image?,0.375,0.2857142857142857,0.4,6,2,4,-0.243275,,,,0.6757170070082641,-1.150691476343988,-0.7285636256839972,-1.2605565891968293
Encode-Decode_Experiment-11-1,2385851,decoding,-0.80044,0.0,0.064833,0.080997,12,0,False,,0.254745,0,17,17,17,1.0,0.254745,0.879662,,,,,,,,,,,,,two men under a covered area carrying red suitcases,18940.0,9.0,Which description best matches the image?,0.4375,0.2857142857142857,0.5555555555555556,7,2,5,0.11946729999999998,-0.9199073,-1.0064967481241762,-0.9524123132039437,0.8960071714070391,1.0258138345292525,1.4370893177058761,-0.2996037139705413
Encode-Decode_Experiment-11-1,2344622,decoding,,0.0,0.0,0.0,6,0,False,,0.214105,0,16,16,16,1.0,0.214105,0.59093,,,,,,,,,,,,,a cat sleeping on a blue blanket next to a keyboard which has a hand on it,17160.0,10.0,Which description best matches the image?,0.5,0.4,0.5,7,2,5,0.16630163636363637,,,,0.6757170070082641,0.6276110810464494,-0.3730412274547879,-0.1755332921092048
Encode-Decode_Experiment-11-1,2374670,decoding,0.566289,0.625,0.507,0.208374,8,5,False,0.240827,0.224487,15,2,17,17,1.0,0.238904,0.830239,,,,,,,,,,,,,a man standing at the back of a redd truck that is sparying water on what look slike a field,23654.0,11.0,Which description best matches the image?,0.3684210526315789,0.42857142857142855,0.36363636363636365,7,3,4,0.41830431249999994,0.1479846875000001,0.3264166979541416,0.15321374071130625,0.8960071714070391,0.8705990260174148,1.1272446107337508,0.492055506324167
Encode-Decode_Experiment-11-1,2367132,decoding,0.788538,0.833333,0.662167,0.217068,6,5,False,0.074967,0.082947,13,1,14,14,1.0,0.075537,0.636807,,,,,,,,,,,,,two men playing a game with the remote controls in both their hands. a girl sitting on the couch behind them,28850.0,12.0,Which description best matches the image?,0.5454545454545454,0.6,0.5,12,3,9,-0.01209007692307691,0.8006280769230769,0.5431668221393019,0.8289183472707877,0.23513667821071418,-0.7301192128660758,-0.08542724971648438,-0.6481168033220155
Encode-Decode_Experiment-11-1,2370664,decoding,,0.0,0.0,0.0,2,0,False,,0.153926,0,11,13,11,0.8462,0.162381,0.826477,,,,,,,,,,,,,three people standing on a street eating one donut each,13105.0,13.0,Which description best matches the image?,0.35,0.2857142857142857,0.2857142857142857,7,2,4,-0.1374644,,,,0.0148465138119392,0.12080401359702775,1.1036597254044687,-0.9802501559536738
Encode-Decode_Experiment-11-1,2386442,decoding,-0.167089,0.25,0.275417,0.152114,12,3,False,0.072454,0.073438,8,9,17,17,1.0,0.072975,0.716671,,,,,,,,,,,,,"one man one woman and a child brushing their teeth. man wearing purple shirt, child wearing checked shirt and woman wearing triped shirt",31046.0,14.0,Which description best matches the image?,0.4444444444444444,0.16666666666666666,0.5384615384615384,8,1,7,0.054409249999999985,-0.22149824999999998,-0.3888160930805292,-0.22932491203529468,0.8960071714070391,-0.7552224474729397,0.41525942809792865,-0.4719511909648582
Encode-Decode_Experiment-11-1,2345035,decoding,-1.604968,0.0,0.327571,0.204098,7,0,False,,0.201564,0,12,14,12,0.8571,0.179982,0.709637,,,,,,,,,,,,,two girls from diferent teams chasing a football during a match played on a football field,26199.0,15.0,Which description best matches the image?,0.42857142857142855,0.2,0.4,9,1,6,-0.19332016666666665,-1.4116478333333333,-1.7911191487218783,-1.4615285457288307,0.23513667821071418,0.29326382324394745,0.3711615856188821,-1.128219553446886
Encode-Decode_Experiment-11-1,2379478,decoding,-0.196456,0.3,0.3334,0.170013,10,3,False,0.476113,0.426047,7,11,20,18,0.9,0.401658,0.714962,,,,,,,,,,,,,two babies lying down on a bed drinking milk from a baby bottle,16120.0,16.0,Which description best matches the image?,0.5625,0.8,0.5,9,4,5,-0.046197578947368416,-0.15025842105263157,-0.4174564959482389,-0.15556781685840412,1.556877664603364,2.4653109093919254,0.40454529491671043,-0.7384721386028178
Encode-Decode_Experiment-11-1,2385550,decoding,2.628302,0.75,0.340167,0.155931,12,9,False,0.217815,0.557702,13,4,17,17,1.0,0.297788,0.792584,,,,,,,,,,,,,"two children, one boy and one girl with tangerines in their mouth",16245.0,17.0,Which description best matches the image?,0.3333333333333333,0.0,0.42857142857142855,6,0,6,0.5623889375,2.0659130625,2.3374114552822514,2.1389122998957273,0.8960071714070391,1.447561893539102,0.891176333999531,0.8737549515491974
Encode-Decode_Experiment-11-1,2412687,decoding,,0.0,0.0,0.0,3,0,False,,0.040606,0,15,16,15,0.9375,0.040792,0.352337,,,,,,,,,,,,,a man holding out a red frisbee which the dog is trying to take with its mouth,18813.0,18.0,Which description best matches the image?,0.4666666666666667,0.5,0.5555555555555556,7,2,5,-0.089918,,,,0.6757170070082641,-1.0705610108424537,-1.8688382889565198,-0.854293382269824
Encode-Decode_Experiment-11-1,2362704,decoding,-1.010002,0.0,0.133625,0.132302,8,0,False,,0.13404,0,17,17,17,1.0,0.13404,0.752536,,,,,,,,,,,,,"two bears eating something which looks like a pumpkin, something orange",29454.0,19.0,Which description best matches the image?,0.5555555555555556,0.2,0.5714285714285714,5,1,4,-0.3286689166666667,-0.6813330833333333,-1.2108737735528197,-0.705408053572219,0.8960071714070391,-0.15688949615829015,0.6401057631151323,-1.486776497235311
Encode-Decode_Experiment-11-1,2408717,decoding,,0.0,0.0,0.0,2,0,False,,0.129702,0,14,15,14,0.9333,0.125304,0.722923,,,,,,,,,,,,,4 women on a beach carrying one surfboard each. 2 women have white surfboards and the other two have a neon green surfbpard,32694.0,20.0,Which description best matches the image?,0.625,0.14285714285714285,0.8888888888888888,10,1,8,0.2959471818181818,,,,0.4554268426094892,-0.24248741088333356,0.4544547239721114,0.1679150999443987
Encode-Decode_Experiment-11-1,2348899,decoding,1.539349,1.0,0.667167,0.216217,6,6,False,0.126331,,16,0,16,16,1.0,0.126331,0.763734,,,,,,,,,,,,,a man sitting with 2 of his male friends standing next to him. a woman touching his pink and white tie,29580.0,21.0,Which description best matches the image?,0.6086956521739131,0.5,0.6470588235294118,14,3,11,0.666775,0.8725740000000001,1.2754012865894657,0.9034064864814293,0.6757170070082641,-0.2324245607891692,0.7103087258789035,1.1502875944004063
Encode-Decode_Experiment-11-1,2387122,decoding,-1.520218,0.25,0.6595,0.269369,4,1,False,0.194792,0.305626,3,10,15,13,0.8667,0.243299,0.76989,,,,,,,,,,,,,a polar bear in water behind a glass facade and a man looking at him with a camera around his neck,22692.0,23.0,Which description best matches the image?,0.6470588235294118,0.6,0.6666666666666666,11,3,8,-0.041064222222222224,-1.479153777777778,-1.7084660298115915,-1.531419819233618,0.4554268426094892,0.9136625373746222,0.7489021745995473,-0.7248731899701619
Encode-Decode_Experiment-11-1,2371471,decoding,,1.0,1.0,0.0,2,2,False,0.090958,,13,0,14,13,0.9286,0.085034,0.593325,,,,,,,,,,,,,"two stuntmen on bikes in the air, one of them just sitting and the other doing a handstand while in air",31523.0,24.0,Which description best matches the image?,0.35,0.2,0.3333333333333333,7,1,5,1.3517034285714284,,,,0.23513667821071418,-0.6370647948093294,-0.35802639482224335,2.9647546217086007
Encode-Decode_Experiment-11-1,2397102,decoding,,0.0,0.0,0.0,4,0,False,,0.06097,0,15,16,15,0.9375,0.057202,0.390507,,,,,,,,,,,,,"a couple cutting a cake, the man has a beer in his hand. a guinness",16383.0,25.0,Which description best matches the image?,0.47619047619047616,0.4,0.3684210526315789,10,2,7,-0.05528222222222222,,,,0.6757170070082641,-0.9097709718500128,-1.6295413530132143,-0.7625385738527899
Encode-Decode_Experiment-11-1,2409918,decoding,,0.0,0.0,0.0,4,0,False,,0.079768,0,16,16,16,1.0,0.079768,0.56073,,,,,,,,,,,,,two elephants in water with one man on each. the elephant on the right is eating a plant,21386.0,26.0,Which description best matches the image?,0.6875,0.6666666666666666,0.7,11,4,7,-0.08443141176470587,,,,0.6757170070082641,-0.6886626220691827,-0.5623723111720483,-0.8397586761164787
Encode-Decode_Experiment-11-1,2347400,decoding,0.004447,0.333333,0.332333,0.224843,6,2,False,0.08957,0.077621,5,5,10,10,1.0,0.083595,0.653536,,,,,,,,,,,,,two men smelling a glass of red wine each,11968.0,29.0,Which description best matches the image?,0.4,0.125,0.5833333333333334,8,1,7,0.23851900000000004,-0.23407200000000003,-0.22152422989002815,-0.24234295670473924,-0.6460239793843857,-0.6511645428964788,0.019450886028748997,0.01578016437939896
Encode-Decode_Experiment-11-1,2349475,decoding,0.87865,0.4,0.2556,0.164343,10,4,False,0.074185,0.069463,11,5,16,16,1.0,0.07271,0.731418,,,,,,,,,,,,,a man cycling to power a blender. a woman holding the top lid of the blender and someone standing in the background,23780.0,30.0,Which description best matches the image?,0.6,0.5,0.5384615384615384,12,5,7,0.8152660666666667,0.06338393333333336,0.6310492746613523,0.06562361073334734,0.6757170070082641,-0.7578189959393015,0.5077119278190694,1.543660293031781
Encode-Decode_Experiment-12-1,2374670,decoding,-1.168423,0.428571,0.671286,0.207728,7,3,False,0.345222,0.337372,11,5,16,16,1.0,0.342769,0.853611,,,,,,,,,,,,,big red truck with water spraying out the back with man standing on the back,27918.0,2.0,Which description best matches the image?,0.3684210526315789,0.2857142857142857,0.45454545454545453,7,2,5,0.41830431249999994,-1.5867273124999999,-1.3653751275455812,-1.642794475184621,0.6757170070082641,1.8882990503897406,1.2737693156555991,0.492055506324167
Encode-Decode_Experiment-12-1,2394020,decoding,,1.0,1.0,0.0,2,2,False,0.236678,,12,0,12,12,1.0,0.236678,0.872197,,,,,,,,,,,,,two men wearing cowboy hats riding horses beside water,14163.0,3.0,Which description best matches the image?,0.35,0.14285714285714285,0.5,7,1,6,0.7567956,,,,-0.20544365058683578,0.8487880188999758,1.3902894322770893,1.3887642054810427
Encode-Decode_Experiment-12-1,2360001,decoding,-0.032259,0.166667,0.172333,0.175661,6,1,False,0.23879,0.142498,2,9,11,11,1.0,0.160005,0.299137,,,,,,,,,,,,,a few men on scaffolding putting up a big old clock,20654.0,4.0,Which description best matches the image?,0.4,0.2857142857142857,0.5454545454545454,8,2,6,0.33658571428571427,-0.36884471428571425,-0.25732205151505455,-0.3818778778534585,-0.42573381498561075,0.09752326206466713,-2.2023619198756674,0.27557200849808045
Encode-Decode_Experiment-12-1,2385851,decoding,0.153319,0.428571,0.399429,0.19008,7,3,False,0.189914,0.142564,5,6,11,11,1.0,0.164087,0.955113,,,,,,,,,,,,,"two people carrying a suitcase each one with a bigger suitcase and one with a red one, walking up a path back facing me",46788.0,5.0,Which description best matches the image?,0.8125,0.5714285714285714,1.0,13,4,9,0.11946729999999998,0.033851700000000026,-0.07633561492351225,0.035047853085725,-0.42573381498561075,0.13751990674273806,1.910109834181075,-0.2996037139705413
Encode-Decode_Experiment-12-1,2383555,decoding,0.818435,0.5,0.329333,0.208528,6,3,False,0.178771,0.196567,6,5,11,11,1.0,0.18686,0.848602,,,,,,,,,,,,,3 asian people on a raft one rowing and one holding a child,18198.0,6.0,Which description best matches the image?,0.2857142857142857,0.2,0.36363636363636365,6,2,4,0.3537579230769231,0.4646770769230769,0.5723241117683385,0.48109648627112167,-0.42573381498561075,0.36065650381615993,1.242366686571501,0.3210634866408233
Encode-Decode_Experiment-12-1,2371471,decoding,,1.0,1.0,0.0,4,4,False,0.108898,,16,0,16,16,1.0,0.108898,0.64794,,,,,,,,,,,,,"two men on bikes up in the air, one is doing a handstand on the bike, a ramp is beneath them",23999.0,7.0,Which description best matches the image?,0.35,0.2,0.3333333333333333,7,1,5,1.3517034285714284,,,,0.6757170070082641,-0.40323825669137653,-0.01563178762958868,2.9647546217086007
Encode-Decode_Experiment-12-1,2410309,decoding,0.306833,0.75,0.669,0.263987,4,3,False,0.160341,0.108841,8,3,11,11,1.0,0.146295,0.593843,,,,,,,,,,,,,"a woman and baby on a sofa both looking at laptops, woman is typing",19762.0,9.0,Which description best matches the image?,0.47058823529411764,0.42857142857142855,0.4166666666666667,8,3,5,0.22219188235294118,0.08464111764705884,0.07338014786579485,0.08763191970582518,-0.42573381498561075,-0.03681137745918198,-0.35477892788960946,-0.027472554278168887
Encode-Decode_Experiment-12-1,2411268,decoding,-0.625771,0.5,0.66675,0.266471,4,2,False,0.087568,0.149781,4,2,6,6,1.0,0.108306,0.623439,,,,,,,,,,,,,a little girl in pink wellies picking green apples with a red bag,17571.0,12.0,Which description best matches the image?,0.6111111111111112,0.3333333333333333,0.6428571428571429,11,2,9,0.05513581818181817,-0.6809068181818181,-0.8361494014936053,-0.7049667263004462,-1.5271846369794857,-0.4090388479822677,-0.16923446584669452,-0.4700264146612231
Encode-Decode_Experiment-12-1,150472,decoding,-1.064549,0.111111,0.296333,0.173991,9,1,False,0.15629,0.183518,3,10,13,13,1.0,0.177234,0.755209,,,,,,,,,,,,,two women in dim lighting opening their mouths to a slice of pizza on a paper plate,20333.0,13.0,Which description best matches the image?,0.625,0.25,0.8,10,1,8,0.04589692857142856,-1.1104459285714285,-1.2640711738737567,-1.1496836426003094,0.0148465138119392,0.26633810556258075,0.6568634447964649,-0.4945014690869191
Encode-Decode_Experiment-12-1,2347400,decoding,,0.0,0.0,0.0,4,0,False,,0.058298,0,6,6,6,1.0,0.058298,0.607751,,,,,,,,,,,,,two men sitting on a sofa smelling their glasses of red wine,14081.0,14.0,Which description best matches the image?,0.5,0.375,0.5833333333333334,10,3,7,0.23851900000000004,,,,-1.5271846369794857,-0.8990320393249843,-0.2675863215207464,0.01578016437939896
Encode-Decode_Experiment-12-1,2379478,decoding,-0.033703,0.333333,0.343667,0.306601,3,1,False,0.421982,0.381393,2,7,9,9,1.0,0.390413,0.740257,,,,,,,,,,,,,two babies lying down with bottles of milk in their mouths,18880.0,16.0,Which description best matches the image?,0.4375,0.4,0.5,7,2,5,-0.046197578947368416,0.012494578947368419,-0.2587303241251602,0.012936076100029252,-0.8663141437831607,2.3551290697532905,0.5631257506328732,-0.7384721386028178
Encode-Decode_Experiment-12-1,2397102,decoding,,0.0,0.0,0.0,2,0,False,,0.05533,0,10,10,10,1.0,0.05533,0.386081,,,,,,,,,,,,,"a man and a woman cutting into a cake, the man is holding a beer",14541.0,19.0,Which description best matches the image?,0.38095238095238093,0.4,0.3157894736842105,8,2,6,-0.05528222222222222,,,,-0.6460239793843857,-0.9281133821482365,-1.6572890144878034,-0.7625385738527899
Encode-Decode_Experiment-12-1,2409918,decoding,-1.126515,0.333333,0.666667,0.295898,3,1,False,0.056238,0.081457,5,4,9,9,1.0,0.067446,0.500723,,,,,,,,,,,,,"two elephants in water with two men on them, one elephant is eating a plant",20376.0,21.0,Which description best matches the image?,0.5625,0.3333333333333333,0.7,9,2,7,-0.08443141176470587,-1.0420835882352941,-1.3245040135952295,-1.0789057123723689,-0.8663141437831607,-0.8093972266069558,-0.9385706668217713,-0.8397586761164787
Encode-Decode_Experiment-12-1,2349475,decoding,0.345877,0.25,0.176,0.213949,4,1,False,0.039053,0.060433,3,4,7,7,1.0,0.05127,0.740265,,,,,,,,,,,,,"a blender full of mixture, one man is pedal powering the blender and one woman is holdingthe lid",30298.0,22.0,Which description best matches the image?,0.55,0.3,0.6153846153846154,11,3,8,0.8152660666666667,-0.4693890666666667,0.11145812278890088,-0.4859749746269436,-1.3068944725807106,-0.9678944643121187,0.563175904562334,1.543660293031781
Encode-Decode_Experiment-12-1,2408717,decoding,,0.0,0.0,0.0,2,0,False,,0.061316,0,5,5,5,1.0,0.061316,0.591546,,,,,,,,,,,,,4 surfers walking to the water holding their surfboards,14438.0,26.0,Which description best matches the image?,0.4375,0.2857142857142857,0.4444444444444444,7,2,4,0.2959471818181818,,,,-1.7474748013782606,-0.8694607816967584,-0.36917937488625,0.1679150999443987
Encode-Decode_Experiment-12-1,2347025,decoding,,1.0,1.0,0.0,2,2,False,0.135576,,6,0,6,6,1.0,0.135576,0.686177,,,,,,,,,,,,,"a granny with a baby on her back, baby is holding an umbrella",14750.0,27.0,Which description best matches the image?,0.4666666666666667,0.5,0.4166666666666667,7,2,5,0.8972498571428572,,,,-1.5271846369794857,-0.1418393133494912,0.22408518747295772,1.7608463206333176
Encode-Decode_Experiment-13-1,2386442,decoding,1.175095,0.571429,0.330429,0.20509,7,4,False,0.036244,0.058128,7,5,12,12,1.0,0.045363,0.73078,,,,,,,,,,,,,woman man and child all burshing teeth man in purple shirt man on right woman left baby middle,32023.0,1.0,Which description best matches the image?,0.5,0.6666666666666666,0.38461538461538464,9,4,5,0.054409249999999985,1.12068575,0.9201596444001132,1.1602852891070619,-0.20544365058683578,-1.0257729993717377,0.5037121519445126,-0.4719511909648582
Encode-Decode_Experiment-13-1,2369373,decoding,-1.02837,0.333333,0.651,0.308903,3,1,False,0.078988,0.18787,10,2,12,12,1.0,0.097135,0.597859,,,,,,,,,,,,,chef with white hat and apron on left placing pizza on pizza pan into oven shaped like someone with mouth open on right,33847.0,2.0,Which description best matches the image?,0.6,0.5,0.5833333333333334,9,2,7,0.355155875,-1.3835258750000001,-1.2287873132359364,-1.4324128952844057,-0.20544365058683578,-0.5184956137095411,-0.3296016552999233,0.3247668482832589
Encode-Decode_Experiment-13-1,2360001,decoding,-0.63251,0.222222,0.338111,0.183221,9,2,False,0.306342,0.269729,4,8,12,12,1.0,0.281933,0.466973,,,,,,,,,,,,,4 men on scaffolding raising clock up on left side of building,23887.0,3.0,Which description best matches the image?,0.45,0.42857142857142855,0.5454545454545454,9,3,6,0.33658571428571427,-0.9690957142857143,-0.8427216654267784,-1.0033388048544514,-0.20544365058683578,1.2922099088818715,-1.1501575567375837,0.27557200849808045
Encode-Decode_Experiment-13-1,2347400,decoding,,0.0,0.0,0.0,2,0,False,,0.041128,0,11,11,11,1.0,0.041128,0.481147,,,,,,,,,,,,,two men on sofa sniffing red wine,10157.0,4.0,Which description best matches the image?,0.4,0.25,0.5,8,2,6,0.23851900000000004,,,,-0.42573381498561075,-1.0672687833530288,-1.0612973322141255,0.01578016437939896
Encode-Decode_Experiment-13-1,2362704,decoding,,0.0,0.0,0.0,2,0,False,,0.108096,0,8,8,8,1.0,0.108096,0.762497,,,,,,,,,,,,,two bears eating pumpkins brow bears,12264.0,5.0,Which description best matches the image?,0.4444444444444444,0.2,0.42857142857142855,4,1,3,-0.3286689166666667,,,,-1.0866043081819357,-0.4110964901631582,0.7025536745359148,-1.486776497235311
Encode-Decode_Experiment-13-1,2344622,decoding,,1.0,1.0,0.0,3,3,False,0.171126,,9,0,10,9,0.9,0.16143,0.566201,,,,,,,,,,,,,brown spripyish cat asleep on blue blanket on desk on left man typing on keybpard next to cat on right,31150.0,6.0,Which description best matches the image?,1.0,1.0,0.9,14,5,9,0.16630163636363637,,,,-0.6460239793843857,0.1114858340064237,-0.5280732926615473,-0.1755332921092048
Encode-Decode_Experiment-13-1,2385851,decoding,,0.0,0.0,0.0,2,0,False,,0.204618,0,5,5,5,1.0,0.204618,0.898787,,,,,,,,,,,,,two men carrying red suitcases through underpass thing,21170.0,10.0,Which description best matches the image?,0.4375,0.42857142857142855,0.4444444444444444,7,3,4,0.11946729999999998,,,,-1.7474748013782606,0.5346546459506977,1.5569885553248362,-0.2996037139705413
Encode-Decode_Experiment-13-1,2379478,decoding,-0.020923,0.666667,0.673,0.302699,3,2,False,0.425838,0.841387,5,2,7,7,1.0,0.544567,0.869933,,,,,,,,,,,,,two babie drink milk next to eachother out of bottle while lying on a bed,21189.0,11.0,Which description best matches the image?,0.625,1.0,0.5,10,5,5,-0.046197578947368416,0.025274578947368415,-0.24626652637090107,0.026167658633124053,-1.3068944725807106,3.8655756066722864,1.3760958702394772,-0.7384721386028178
Encode-Decode_Experiment-13-1,2347025,decoding,,1.0,1.0,0.0,3,3,False,0.101435,,8,0,9,8,0.8889,0.119073,0.734258,,,,,,,,,,,,,mum carrying baby on back baby holding umbrella,13789.0,16.0,Which description best matches the image?,0.4666666666666667,0.75,0.3333333333333333,7,3,4,0.8972498571428572,,,,-0.8663141437831607,-0.3035405938791836,0.5255165727779109,1.7608463206333176
Encode-Decode_Experiment-13-1,2383555,decoding,-0.710343,0.0,0.06875,0.096784,8,0,False,,0.19994,0,14,14,14,1.0,0.19994,0.774012,,,,,,,,,,,,,four people on boat one rowing one carrying baby,15271.0,17.0,Which description best matches the image?,0.3333333333333333,0.2,0.45454545454545453,7,2,5,0.3537579230769231,-1.0641009230769232,-0.9186289244727294,-1.101701031864998,0.23513667821071418,0.4888182167973377,0.774743986754599,0.3210634866408233
Encode-Decode_Experiment-13-1,2349475,decoding,0.733089,0.333333,0.163,0.23235,3,1,False,0.101825,0.16438,2,6,8,8,1.0,0.148741,0.774076,,,,,,,,,,,,,three people one blender in garden one hold lid one ride bike to power it,17671.0,27.0,Which description best matches the image?,0.55,0.3,0.5384615384615384,11,3,7,0.8152660666666667,-0.08217706666666669,0.48908973906606884,-0.08508080124629376,-1.0866043081819357,-0.012844745199857736,0.7751452181902909,1.543660293031781
Encode-Decode_Experiment-13-1,2348899,decoding,0.018788,0.666667,0.661,0.301609,3,2,False,0.161789,0.018824,4,3,7,7,1.0,0.100518,0.631196,,,,,,,,,,,,,three men one woman shes playing with mans pink and whote stripe tie,17678.0,28.0,Which description best matches the image?,0.6086956521739131,0.3333333333333333,0.7058823529411765,14,2,12,0.666775,-0.647987,-0.2075380543349553,-0.6708836831668624,-1.3068944725807106,-0.4853479780050056,-0.12060396199256235,1.1502875944004063
Encode-Decode_Experiment-13-1,2410309,decoding,0.012783,0.333333,0.3305,0.221655,6,2,False,0.21398,0.276952,4,7,11,11,1.0,0.254053,0.617382,,,,,,,,,,,,,babay on right mum on left on sofa both on keyboards on two different laptops,19773.0,29.0,Which description best matches the image?,0.5882352941176471,0.5714285714285714,0.5,10,4,6,0.22219188235294118,-0.2094088823529412,-0.21339447886659277,-0.21680836541596885,-0.42573381498561075,1.019033413628413,-0.20720725969025222,-0.027472554278168887
Encode-Decode_Experiment-13-1,2356991,decoding,,0.0,0.0,0.0,8,0,False,,0.053085,0,15,15,15,1.0,0.053085,0.434635,,,,,,,,,,,,,man closest dove to floor man behind standing up ready to catch ball,17896.0,30.0,Which description best matches the image?,0.625,0.8571428571428571,0.4,10,6,4,-0.243275,,,,0.4554268426094892,-0.9501105568915654,-1.3528922781034372,-1.2605565891968293
Encode-Decode_Experiment-14-1,2369373,decoding,0.656337,0.5,0.3938,0.161807,10,5,False,0.119415,0.485564,13,4,17,17,1.0,0.205568,0.721729,,,,,,,,,,,,,a chef in a white uniform using a pizza slice to get pizza out of an open over with fire. above the oven there is a stone figure of a face,65556.0,1.0,Which description best matches the image?,0.9333333333333333,0.75,0.9166666666666666,14,3,11,0.355155875,0.30118112499999994,0.41423673396161653,0.3118233891117247,0.8960071714070391,0.5439630272452022,0.44696924999997845,0.3247668482832589
Encode-Decode_Experiment-14-1,2387122,decoding,-0.505286,0.2,0.324,0.245406,5,1,False,0.158599,0.151713,4,4,14,8,0.5714,0.12785,0.713494,,,,,,,,,,,,,a white polar bear is in the water of an aquarium with paws on the glass. the woman is wearing glasses and looking closely at the polar bear,38986.0,3.0,Which description best matches the image?,0.6470588235294118,0.8,0.5833333333333334,11,4,7,-0.041064222222222224,-0.4642217777777778,-0.7186454365153645,-0.4806250990865933,0.23513667821071418,-0.21754094901406157,0.3953420488605202,-0.7248731899701619
Encode-Decode_Experiment-14-1,2408717,decoding,,1.0,1.0,0.0,4,4,False,0.083777,,11,0,11,11,1.0,0.083777,0.698156,,,,,,,,,,,,,four women are carrying their surfboards to the sea. two have a white surfboard and two have a green one,31476.0,4.0,Which description best matches the image?,0.5625,0.14285714285714285,0.7777777777777778,9,1,7,0.2959471818181818,,,,-0.42573381498561075,-0.6493812530063737,0.29918442760040986,0.1679150999443987
Encode-Decode_Experiment-14-1,2362704,decoding,-0.379442,0.142857,0.212143,0.182599,7,1,False,0.094662,0.100767,2,7,12,9,0.75,0.080145,0.500494,,,,,,,,,,,,,two black bears are laying down and eating pumpkins,22395.0,5.0,Which description best matches the image?,0.6666666666666666,0.4,0.5714285714285714,6,2,4,-0.3286689166666667,-0.0507730833333333,-0.5959150636994808,-0.05256715513182316,-0.20544365058683578,-0.6849686644396795,-0.9400063230526077,-1.486776497235311
Encode-Decode_Experiment-14-1,2348899,decoding,1.158582,0.222222,0.097889,0.107315,9,2,False,0.045404,0.164044,5,8,13,13,1.0,0.118413,0.615726,,,,,,,,,,,,,three men and one woman are in this picture. the three men are sat down and the woman is touching the third man's pink and white tie,45677.0,6.0,Which description best matches the image?,0.5652173913043478,0.3333333333333333,0.6470588235294118,13,2,11,0.666775,0.491807,0.9040552083816404,0.5091850477976335,0.0148465138119392,-0.31000746930483924,-0.21758912308878803,1.1502875944004063
Encode-Decode_Experiment-14-1,2409918,decoding,-0.14946,0.285714,0.317,0.209325,7,2,False,0.114083,0.086029,3,11,14,14,1.0,0.092041,0.561352,,,,,,,,,,,,,two grey elephants are swimming in water of a cave and two men are riding them,26700.0,7.0,Which description best matches the image?,0.625,0.5,0.6,10,3,6,-0.08443141176470587,-0.06502858823529414,-0.3716232690891493,-0.06732637967495558,0.23513667821071418,-0.5684081340402841,-0.5584728431564147,-0.8397586761164787
Encode-Decode_Experiment-14-1,2397102,decoding,0.724589,0.272727,0.176182,0.133242,11,3,False,0.045029,0.046818,7,10,17,17,1.0,0.046081,0.467705,,,,,,,,,,,,,a man and a woman are cutting a cake. the man is holding a beer bottle in the other hand. the woman is wearing a pink dress,34121.0,8.0,Which description best matches the image?,0.6666666666666666,0.4,0.631578947368421,14,2,12,-0.05528222222222222,0.7798712222222223,0.4808000457240343,0.8074280471063264,0.8960071714070391,-1.0187378227723123,-1.1455684721918544,-0.7625385738527899
Encode-Decode_Experiment-14-1,2371471,decoding,1.289033,1.0,0.667,0.258333,4,4,False,0.170181,,11,0,15,11,0.7333,0.127736,0.558753,,,,,,,,,,,,,"two men are riding motocycles and jumping in mid air, headed toward a dirt ramp. the man in front is doing a handstand on the bike",35350.0,9.0,Which description best matches the image?,0.5,0.4,0.4666666666666667,10,2,7,1.3517034285714284,-0.06267042857142835,1.031278594988907,-0.06488489421183702,0.4554268426094892,-0.21865795476940214,-0.5747666009902274,2.9647546217086007
Encode-Decode_Experiment-14-1,2367132,decoding,-1.306166,0.090909,0.307182,0.165578,11,1,False,0.091676,0.030088,2,11,15,13,0.8667,0.042398,0.551044,,,,,,,,,,,,,two men are holding the remote in both hands and a girl is sat on the couch behind,24467.0,10.0,Which description best matches the image?,0.5,0.6,0.4444444444444444,11,3,8,-0.01209007692307691,-1.294075923076923,-1.499710095782273,-1.3398022206794327,0.4554268426094892,-1.0548249473066913,-0.6230961812675907,-0.6481168033220155
Encode-Decode_Experiment-14-1,2385550,decoding,0.148202,0.125,0.106375,0.125673,8,1,False,0.227269,0.16972,2,10,14,12,0.8571,0.163983,0.794707,,,,,,,,,,,,,a boy on the left and a girl on the right have tangerines in their mouths,24721.0,11.0,Which description best matches the image?,0.3888888888888889,0.5,0.35714285714285715,7,2,5,0.5623889375,-0.41418693749999996,-0.08132601031541713,-0.428822272899924,0.23513667821071418,0.1365008839483921,0.904485933030384,0.8737549515491974
Encode-Decode_Experiment-14-1,2370664,decoding,-0.880151,0.0,0.3315,0.37664,2,0,False,,0.238992,0,5,6,5,0.8333,0.212111,0.748127,,,,,,,,,,,,,"three people have sugar donuts in their mouths, eating them outside on the street",22622.0,12.0,Which description best matches the image?,0.35,0.14285714285714285,0.35714285714285715,7,1,5,-0.1374644,-0.7426866000000001,-1.084235541769697,-0.7689295026700758,-1.5271846369794857,0.6080732786240894,0.6124646787406489,-0.9802501559536738
Encode-Decode_Experiment-14-1,2410309,decoding,-0.810111,0.0,0.067273,0.083041,11,0,False,,0.083733,0,16,16,16,1.0,0.083733,0.552169,,,,,,,,,,,,,a woman and a baby are both using two separate laptops,20527.0,13.0,Which description best matches the image?,0.29411764705882354,0.14285714285714285,0.3333333333333333,5,1,4,0.22219188235294118,-1.0323028823529412,-1.0159284686313312,-1.0687794043039591,0.6757170070082641,-0.6498123780347508,-0.6160432849370634,-0.027472554278168887
Encode-Decode_Experiment-14-1,2344622,decoding,0.517849,0.714286,0.601857,0.217107,7,5,False,0.129103,,13,0,13,13,1.0,0.129103,0.456308,,,,,,,,,,,,,a cat is lying down,14068.0,14.0,Which description best matches the image?,0.14285714285714285,0.2,0.1,2,1,1,0.16630163636363637,0.35154736363636363,0.2791751984849463,0.3639693236499559,0.0148465138119392,-0.20526368400141506,-1.2170190139509809,-0.1755332921092048
Encode-Decode_Experiment-14-1,2411268,decoding,1.243391,0.571429,0.312143,0.208531,7,4,False,0.147918,0.117184,7,4,13,11,0.8462,0.12006,0.710523,,,,,,,,,,,,,a girl with pink boots is picking apples from a high branch and putting them into a red bag,26178.0,15.0,Which description best matches the image?,0.6111111111111112,0.3333333333333333,0.6428571428571429,11,2,9,0.05513581818181817,1.1882551818181817,0.9867658675163014,1.2302422933180628,0.0148465138119392,-0.29386967562899835,0.37671613330674636,-0.4700264146612231
Encode-Decode_Experiment-14-1,2360001,decoding,0.07044,0.1,0.0929,0.100795,10,1,False,0.068476,0.190272,2,11,14,13,0.9286,0.166395,0.433424,,,,,,,,,,,,,"a group of people are stood on scaffolding, attempting to raise the clock",21349.0,16.0,Which description best matches the image?,0.4,0.5714285714285714,0.36363636363636365,8,4,4,0.33658571428571427,-0.26614571428571426,-0.15716402604051125,-0.2755499987794129,0.23513667821071418,0.16013437414033402,-1.3604843291756759,0.27557200849808045
Encode-Decode_Experiment-14-1,2412687,decoding,-0.049665,0.333333,0.348333,0.302026,3,1,False,0.022005,0.239202,4,3,8,7,0.875,0.10105,0.291411,,,,,,,,,,,,,,9321.0,17.0,Which description best matches the image?,0.0,0.0,0.0,0,0,0,-0.089918,0.040253,-0.2742973929634611,0.04167534363886267,-1.0866043081819357,-0.4801352844800831,-2.2507980772531364,-0.854293382269824
Encode-Decode_Experiment-14-1,2386442,decoding,-0.222458,0.285714,0.33,0.199074,7,2,False,0.07239,0.057909,4,6,10,10,1.0,0.063701,0.757394,,,,,,,,,,,,,,9158.0,18.0,Which description best matches the image?,0.0,0.0,0.0,0,0,0,0.054409249999999985,-0.27686724999999995,-0.44281515551054307,-0.2866503809926441,-0.6460239793843857,-0.8460918454995026,0.6705617367806441,-0.4719511909648582
Encode-Decode_Experiment-14-1,2345035,decoding,,0.0,0.0,0.0,5,0,False,,0.209946,0,7,10,7,0.7,0.171448,0.73719,,,,,,,,,,,,,"two girls, one with a black top and one with a blue top are chasing the football in a field",26088.0,19.0,Which description best matches the image?,0.47619047619047616,0.2,0.5333333333333333,10,1,8,-0.19332016666666665,,,,-0.6460239793843857,0.20964516433099847,0.5438979879255604,-1.128219553446886
Encode-Decode_Experiment-14-1,2349475,decoding,0.10635,0.2,0.1844,0.146686,10,2,False,0.074689,0.053764,4,10,14,14,1.0,0.059742,0.628056,,,,,,,,,,,,,one person is riding a bike next to the blender and the woman is holding the lid of the blender,29862.0,21.0,Which description best matches the image?,0.4,0.2,0.46153846153846156,8,2,6,0.8152660666666667,-0.7089160666666667,-0.12214250981551536,-0.7339656842830156,0.23513667821071418,-0.8848832997573375,-0.14028937930621146,1.543660293031781
Encode-Decode_Experiment-14-1,2379478,decoding,-0.499393,0.333333,0.455167,0.243963,6,2,False,0.442277,0.313625,4,3,11,7,0.6364,0.262572,0.50399,,,,,,,,,,,,,"two babies are lying on a bed, drinking milk out of a bottle",17597.0,22.0,Which description best matches the image?,0.5625,0.8,0.5,9,4,5,-0.046197578947368416,-0.45319542105263155,-0.7128982408842337,-0.4692091249826717,-0.42573381498561075,1.1025050980998703,-0.9180890558779204,-0.7384721386028178
Encode-Decode_Experiment-14-1,2347025,decoding,0.364068,0.727273,0.666727,0.166303,11,8,False,0.127211,0.014306,13,1,15,14,0.9333,0.116392,0.667948,,,,,,,,,,,,,a woman is holding a baby on her back and the baby is holding a pink umbrella,24254.0,23.0,Which description best matches the image?,0.5333333333333333,0.75,0.4166666666666667,8,3,5,0.8972498571428572,-0.5331818571428573,0.12919904179889533,-0.5520218895097402,0.4554268426094892,-0.3298098257218852,0.10980318995368785,1.7608463206333176
Encode-Decode_Experiment-14-1,2356991,decoding,,0.0,0.0,0.0,3,0,False,,0.040663,0,15,16,15,0.9375,0.047556,0.409866,,,,,,,,,,,,,one man on the base is trying to catch the ball. another man is diving head-first for the base,26070.0,24.0,Which description best matches the image?,0.375,0.2857142857142857,0.4,6,2,4,-0.243275,,,,0.6757170070082641,-1.0042853360255815,-1.508175112957504,-1.2605565891968293
Encode-Decode_Experiment-14-1,2350974,decoding,1.329524,0.5,0.2888,0.158854,10,5,False,0.190157,0.309746,11,3,15,14,0.9333,0.204647,0.683362,,,,,,,,,,,,,,948.0,25.0,Which description best matches the image?,0.0,0.0,0.0,0,0,0,0.050771181818181806,1.2787528181818182,1.0707677682962393,1.3239376723943896,0.4554268426094892,0.5349387965375826,0.2064372735436832,-0.4815889202277191
Encode-Decode_Experiment-14-1,2385851,decoding,0.408758,0.142857,0.094571,0.118128,7,1,False,0.11042,0.343492,2,6,10,8,0.8,0.230591,0.679922,,,,,,,,,,,,,two men are carrying two big red suitcases up a ramp under a cover. they're carrying the suitcases on their backs,31927.0,26.0,Which description best matches the image?,0.8125,0.5714285714285714,1.0,13,4,9,0.11946729999999998,0.2892907,0.1727833236171929,0.29951281479708675,-0.6460239793843857,0.7891457905424506,0.18487108387522705,-0.2996037139705413
Encode-Decode_Experiment-14-1,2383555,decoding,,0.0,0.0,0.0,5,0,False,,0.117097,0,11,11,11,1.0,0.117097,0.500017,,,,,,,,,,,,,,1875.0,27.0,Which description best matches the image?,0.0,0.0,0.0,0,0,0,0.3537579230769231,,,,-0.42573381498561075,-0.32290202697175285,-0.9429967510967509,0.3210634866408233
Encode-Decode_Experiment-14-1,2374670,decoding,2.865198,0.8,0.3043,0.173007,10,8,False,0.200877,0.604346,15,2,17,17,1.0,0.248344,0.759587,,,,,,,,,,,,,a man is on the back of a red truck that is spraying water on the ground,21762.0,28.0,Which description best matches the image?,0.3684210526315789,0.2857142857142857,0.36363636363636365,7,2,4,0.41830431249999994,2.4468936875,2.5684461839827977,2.5333549120395094,0.8960071714070391,0.9630949411964911,0.6843101826942849,0.492055506324167
Encode-Decode_Experiment-14-1,150472,decoding,1.068055,0.714286,0.503,0.197823,7,5,False,0.06774,0.027978,8,4,12,12,1.0,0.054486,0.642623,,,,,,,,,,,,,two women are sharing a pizza slice off a paper plate,17318.0,29.0,Which description best matches the image?,0.375,0.25,0.5,6,1,5,0.04589692857142856,1.0221580714285714,0.8157680237728907,1.0582761255067414,-0.20544365058683578,-0.936383144056196,-0.04896534299795476,-0.4945014690869191
Encode-Decode_Experiment-14-1,2347400,decoding,1.364864,1.0,0.6634,0.246618,5,5,False,0.09168,,11,0,11,11,1.0,0.09168,0.635342,,,,,,,,,,,,,two men are sat on the couch and both have a glass of red wine that they are smelling,29826.0,30.0,Which description best matches the image?,0.5,0.375,0.5833333333333334,10,3,7,0.23851900000000004,1.1263450000000002,1.105233387438299,1.1661445092518519,-0.42573381498561075,-0.5719453189321959,-0.09461168804912663,0.01578016437939896
Encode-Decode_Experiment-15-1,2348899,decoding,0.855981,0.333333,0.199889,0.155896,9,3,False,0.071757,0.051705,9,12,21,21,1.0,0.060299,0.516808,,,,,,,,,,,,,women reaching to hold mans pink and white tie with two other men stood to the left of him,17186.0,2.0,Which description best matches the image?,0.6521739130434783,0.6666666666666666,0.6470588235294118,15,4,11,0.666775,0.18920599999999999,0.6089411501471659,0.1958916122657852,1.777167829002139,-0.8794256488299281,-0.8377299223981906,1.1502875944004063
Encode-Decode_Experiment-15-1,2344622,decoding,,1.0,1.0,0.0,3,3,False,0.063025,,9,0,9,9,1.0,0.063025,0.544275,,,,,,,,,,,,,cat lying on blue blanket to the left of someone typing on a keyboard,15099.0,8.0,Which description best matches the image?,0.7142857142857143,0.8,0.6,10,4,6,0.16630163636363637,,,,-0.8663141437831607,-0.8527154936627499,-0.6655326748332245,-0.1755332921092048
Encode-Decode_Experiment-15-1,2360001,decoding,,0.0,0.0,0.0,4,0,False,,0.047729,0,10,10,10,1.0,0.047729,0.418006,,,,,,,,,,,,,multiple men stood on scaffolding raising a large clock above their heads in a balck and white image,17465.0,9.0,Which description best matches the image?,0.65,0.5714285714285714,0.8181818181818182,13,4,9,0.33658571428571427,,,,-0.6460239793843857,-1.0025902308003718,-1.4571434897304016,0.27557200849808045
Encode-Decode_Experiment-15-1,2411268,decoding,-1.068241,0.333333,0.659,0.304863,3,1,False,0.075112,0.078353,2,8,10,10,1.0,0.077705,0.624099,,,,,,,,,,,,,little girl with pink wellies reaching up in an orchard to pick a green apple off the tree above her head and she is holding a red bag,27680.0,11.0,Which description best matches the image?,0.8888888888888888,0.8333333333333334,0.7142857142857143,16,5,10,0.05513581818181817,-1.1233768181818182,-1.2676718265583204,-1.1630714464427356,-0.6460239793843857,-0.7088765069224068,-0.16509676666611867,-0.4700264146612231
Encode-Decode_Experiment-15-1,2356125,decoding,,0.0,0.0,0.0,3,0,False,,0.317386,0,5,5,5,1.0,0.317386,0.639606,,,,,,,,,,,,,4 people in the image with two women in uniform lifting luggage onto a conveyorbelt and two others stood against a wall in the back,27919.0,12.0,Which description best matches the image?,0.5,0.42857142857142855,0.5384615384615384,10,3,7,-0.08454785714285713,,,,-1.7474748013782606,1.63958890049668,-0.06787964364613303,-0.8400671554996145
Encode-Decode_Experiment-15-1,2362704,decoding,,1.0,1.0,0.0,2,2,False,0.275856,,8,0,8,8,1.0,0.275856,0.69834,,,,,,,,,,,,,two bears in the middle of eating pumpkins,11259.0,14.0,Which description best matches the image?,0.4444444444444444,0.2,0.42857142857142855,4,1,3,-0.3286689166666667,,,,-1.0866043081819357,1.2326656634853412,0.3003379679780247,-1.486776497235311
Encode-Decode_Experiment-15-1,2386442,decoding,-0.023239,0.333333,0.340333,0.301212,3,1,False,0.099836,0.121788,6,3,9,9,1.0,0.107153,0.855131,,,,,,,,,,,,,"three people, a man, woman and child all brushing their teeth with man on the right wearing a purple shir",21565.0,17.0,Which description best matches the image?,0.4444444444444444,0.3333333333333333,0.46153846153846156,8,2,6,0.054409249999999985,-0.07764824999999999,-0.24852522399209545,-0.08039195840574168,-0.8663141437831607,-0.4203362833849663,1.2832985622532889,-0.4719511909648582
Encode-Decode_Experiment-15-1,2347400,decoding,,0.0,0.0,0.0,3,0,False,,0.153412,0,13,13,13,1.0,0.153412,0.646063,,,,,,,,,,,,,"two men sat on couch inside holding wine glasses and appearing to sniff them, red wine",17882.0,19.0,Which description best matches the image?,0.6,0.5,0.5833333333333334,12,4,7,0.23851900000000004,,,,0.0148465138119392,0.03292309588080577,-0.027399153329498615,0.01578016437939896
Encode-Decode_Experiment-15-1,150472,decoding,,0.0,0.0,0.0,2,0,False,,0.03753,0,7,7,7,1.0,0.03753,0.653967,,,,,,,,,,,,,"two women, one wearing glasses eating large pizza slice off paper plate",13936.0,20.0,Which description best matches the image?,0.5,0.25,0.7,8,1,7,0.04589692857142856,,,,-1.3068944725807106,-1.102523052718952,0.022152928978488452,-0.4945014690869191
Encode-Decode_Experiment-15-1,2367132,decoding,,0.0,0.0,0.0,3,0,False,,0.059663,0,10,10,10,1.0,0.059663,0.684396,,,,,,,,,,,,,two men standing up holding controllers in each hand,10052.0,21.0,Which description best matches the image?,0.2727272727272727,0.4,0.2222222222222222,6,2,4,-0.01209007692307691,,,,-0.6460239793843857,-0.8856573651491965,0.2129196689265853,-0.6481168033220155
Encode-Decode_Experiment-15-1,2410309,decoding,,0.0,0.0,0.0,8,0,False,,0.097074,0,16,16,16,1.0,0.097074,0.752058,,,,,,,,,,,,,"woman on laptop, diet coke bottle inbetween her and a baby who is also on a laptop to the left of the woman",23484.0,22.0,Which description best matches the image?,0.5882352941176471,0.2857142857142857,0.6666666666666666,10,2,8,0.22219188235294118,,,,0.6757170070082641,-0.5190933097716093,0.6371090658298063,-0.027472554278168887
Encode-Decode_Experiment-15-1,2356991,decoding,,0.0,0.0,0.0,2,0,False,,0.023769,0,14,14,14,1.0,0.023769,0.592848,,,,,,,,,,,,,"ball in the air, player diving and player on right of the screen is getting ready to catch the ball",16545.0,24.0,Which description best matches the image?,0.5,0.5714285714285714,0.4,8,4,4,-0.243275,,,,0.23513667821071418,-1.237357405343875,-0.36101682286638653,-1.2605565891968293
Encode-Decode_Experiment-15-1,2385851,decoding,,0.0,0.0,0.0,4,0,False,,0.046405,0,11,11,11,1.0,0.046405,0.935285,,,,,,,,,,,,,two men carrying red suitcases over thei heads walking through a shielded underpass,16493.0,26.0,Which description best matches the image?,0.6875,0.5714285714285714,0.7777777777777778,11,4,7,0.11946729999999998,,,,-0.42573381498561075,-1.0155631748360812,1.785803320010683,-0.2996037139705413
Encode-Decode_Experiment-15-1,2347025,decoding,,1.0,1.0,0.0,2,2,False,0.227367,,7,0,8,7,0.875,0.223854,0.892475,,,,,,,,,,,,,baby holding pink umbrella with little people on it and she is strapped to her mothers back,18332.0,27.0,Which description best matches the image?,0.6,0.5,0.5833333333333334,9,2,7,0.8972498571428572,,,,-1.0866043081819357,0.7231346697202645,1.5174171049796923,1.7608463206333176
Encode-Decode_Experiment-16-1,2411268,decoding,,1.0,1.0,0.0,2,2,False,0.141029,,9,0,9,9,1.0,0.141029,0.594773,,,,,,,,,,,,,,13264.0,1.0,Which description best matches the image?,0.0,0.0,0.0,0,0,0,0.05513581818181817,,,,-0.8663141437831607,-0.08840920471903553,-0.3489485335897071,-0.4700264146612231
Encode-Decode_Experiment-16-1,150472,decoding,0.853957,0.4,0.2703,0.151881,10,4,False,0.155623,0.084243,6,5,11,11,1.0,0.123178,0.660387,,,,,,,,,,,,,"two girls eating pizza outside,dim lighting on a street, girl on right had glasses, both mouth open and leaning to pizza on white paper plate",44120.0,2.0,Which description best matches the image?,1.0,0.75,1.0,16,3,10,0.04589692857142856,0.8080600714285714,0.6069672278737214,0.8366129520192195,-0.42573381498561075,-0.26331858839082467,0.0624014573713629,-0.4945014690869191
Encode-Decode_Experiment-16-1,2408717,decoding,,0.0,0.0,0.0,7,0,False,,0.076775,0,13,13,13,1.0,0.076775,0.470076,,,,,,,,,,,,,"four girls total, two farthest right were holding surboard under their righ arms , other two far left were seperate, all on beach, walkign towards water, sunny",58748.0,3.0,Which description best matches the image?,0.8125,0.7142857142857143,0.5555555555555556,13,5,5,0.2959471818181818,,,,0.0148465138119392,-0.7179889222949217,-1.1307041013476946,0.1679150999443987
Encode-Decode_Experiment-16-1,2410309,decoding,-0.290182,0.1,0.1357,0.123026,10,1,False,0.36964,0.24487,3,12,15,15,1.0,0.269824,0.668916,,,,,,,,,,,,,"mum and baby on counch, mum facing screen and looking at laptop, had annoyed look on her face, baby to right of her facing sideways looking at laption, touching keyboard",56920.0,4.0,Which description best matches the image?,0.7647058823529411,0.8571428571428571,0.5833333333333334,13,6,7,0.22219188235294118,-0.5123738823529411,-0.5088635310277143,-0.530478662922938,0.4554268426094892,1.1735623414132874,0.1158718154185323,-0.027472554278168887
Encode-Decode_Experiment-16-1,2356125,decoding,,0.0,0.0,0.0,5,0,False,,0.085963,0,13,13,13,1.0,0.085963,0.415404,,,,,,,,,,,,,"four airport staff next to conveyor belt, two women helping suitcase off ramp to belt, to the left of them one man and to the left of him a women, four suitcases on belt",51005.0,5.0,Which description best matches the image?,0.75,0.42857142857142855,0.8461538461538461,15,3,11,-0.08454785714285713,,,,0.0148465138119392,-0.627962177732914,-1.473456055287763,-0.8400671554996145
Encode-Decode_Experiment-16-1,2367132,decoding,1.240296,0.571429,0.320571,0.202256,7,4,False,0.119372,0.072278,7,5,13,12,0.9231,0.099837,0.673878,,,,,,,,,,,,,"two men standing up holding wii remotes in both hands playing video game, both hans were up out in front of them. girl with pink shirt on couch in the back table in front of couch had a beer on it",59522.0,7.0,Which description best matches the image?,0.7727272727272727,1.0,0.6666666666666666,17,5,12,-0.01209007692307691,1.252386076923077,0.9837474438817606,1.2966392597892418,0.0148465138119392,-0.49202061764875044,0.1469797901670439,-0.6481168033220155
Encode-Decode_Experiment-16-1,2348899,decoding,0.796965,0.6,0.4006,0.250199,5,3,False,0.067416,0.137702,10,2,12,12,1.0,0.07913,0.764083,,,,,,,,,,,,,"three men one women in pub, manfar left was a blonde girl reaching right for mans tie. man had pink and white tie. two men to left of him looking and pointing at him",56407.0,8.0,Which description best matches the image?,0.7391304347826086,0.8333333333333334,0.7058823529411765,17,5,12,0.666775,0.13019000000000003,0.551385321644399,0.13479027621155026,-0.20544365058683578,-0.6949139349806499,0.7124966910516621,1.1502875944004063
Encode-Decode_Experiment-16-1,2349475,decoding,2.547559,0.294118,0.094765,0.078253,17,5,False,0.115203,0.221688,12,9,21,21,1.0,0.16084,0.73641,,,,,,,,,,,,,"man on bike cycling to power blender on left side. women on right holding lid shut, another women in background watching",37137.0,9.0,Which description best matches the image?,0.7,0.7,0.5384615384615384,14,7,7,0.8152660666666667,1.7322929333333335,2.2586661953392038,1.7935036712751875,1.777167829002139,0.10570483930773163,0.5390079798030616,1.543660293031781
Encode-Decode_Experiment-16-1,2360001,decoding,0.642639,0.307692,0.229846,0.121135,13,4,False,0.264922,0.152974,7,10,17,17,1.0,0.19907,0.428865,,,,,,,,,,,,,"four men standing on scaffoling holding up clock, black and white photo,",38968.0,11.0,Which description best matches the image?,0.6,0.5714285714285714,0.7272727272727273,12,4,8,0.33658571428571427,0.3060532857142857,0.4008776493264176,0.31686770809494647,0.8960071714070391,0.4802936991907914,-1.3890657997275628,0.27557200849808045
Encode-Decode_Experiment-16-1,2345035,decoding,2.539815,0.533333,0.213133,0.126072,15,8,False,0.267468,0.112279,17,4,21,21,1.0,0.237908,0.774636,,,,,,,,,,,,,"football pitch, white goal was in far left of photo, two young girls in right of photo running for the ball. taller girl was to the left of a shorter girl who was to the left of the ball. men in the background and another football pitch behind",78227.0,12.0,Which description best matches the image?,1.0,1.0,1.0,21,5,15,-0.19332016666666665,2.7331351666666666,2.2511137970755897,2.8297107614909094,1.777167829002139,0.8608399231023343,0.7786559932525978,-1.128219553446886
Encode-Decode_Experiment-16-1,2344622,decoding,,1.0,1.0,0.0,3,3,False,0.160025,,9,0,14,9,0.6429,0.207399,0.575306,,,,,,,,,,,,,"cat on light blue blanket in left side of photo, behind the cat was cds. to the left of cat was white middle aged mans right hand on left edge of old faishioned keyboard",78515.0,13.0,Which description best matches the image?,0.8571428571428571,0.8,0.8,12,4,8,0.16630163636363637,,,,0.23513667821071418,0.5619037074033472,-0.4709918516931479,-0.1755332921092048
Encode-Decode_Experiment-16-1,2385851,decoding,,0.0,0.0,0.0,9,0,False,,0.215766,0,13,13,13,1.0,0.215766,0.89438,,,,,,,,,,,,,two man on covered walkway walking in shade. far left was sunny where there was no sun. men holding red suitcases walking away from camera. suitcases large and on their backs.,56177.0,14.0,Which description best matches the image?,0.875,0.7142857142857143,0.8888888888888888,14,5,8,0.11946729999999998,,,,0.0148465138119392,0.6438860508676832,1.5293600094327178,-0.2996037139705413
Encode-Decode_Experiment-16-1,2374670,decoding,2.415888,0.875,0.38325,0.203548,8,7,False,0.159454,0.317273,16,1,17,17,1.0,0.168738,0.737041,,,,,,,,,,,,,"red truck on dirt road. guy in front driving was visble, guy on ledge at back of truck bending over. multiple outlets of water spraying along the rear end of car. blue tube at back of car",76411.0,15.0,Which description best matches the image?,1.0,1.0,1.0,19,7,11,0.41830431249999994,1.9975836875,2.130252993922845,2.0681684998372543,0.8960071714070391,0.18309178190141207,0.5429638709893391,0.492055506324167
Encode-Decode_Experiment-16-1,2385550,decoding,-0.393193,0.272727,0.337455,0.16462,11,3,False,0.263669,0.379693,6,9,15,15,1.0,0.333283,0.685926,,,,,,,,,,,,,"two kids with peeled tangerines in their mouth, boy on left and girl with fringe on right, outside, sunny",60678.0,16.0,Which description best matches the image?,0.6111111111111112,0.5,0.6428571428571429,11,2,9,0.5623889375,-0.9555819375,-0.6093258370108124,-0.9893475174621197,0.4554268426094892,1.7953524135900882,0.22251160793610233,0.8737549515491974
Encode-Decode_Experiment-16-1,2386442,decoding,0.937838,0.333333,0.191889,0.15082,9,3,False,0.071434,0.07566,6,6,13,12,0.9231,0.071538,0.577431,,,,,,,,,,,,,"mum , toddler and dad all brushing their teeth, close up photo, mum far left then baby to the left of her and dad on far right. dad in purple shirt, baby in pink check top and mum in brown and yellow stripy top",72299.0,17.0,Which description best matches the image?,0.9444444444444444,0.6666666666666666,1.0,17,4,13,0.054409249999999985,0.88342875,0.6887728475470403,0.9146447901200138,0.0148465138119392,-0.7693025989678901,-0.4576697141799298,-0.4719511909648582
Encode-Decode_Experiment-16-1,2371471,decoding,1.633731,1.0,0.671857,0.200855,7,7,False,0.1529,,17,0,17,17,1.0,0.1529,0.627729,,,,,,,,,,,,,"two bikers mid air. behind them is a metal wall, below them is a dirt ramo, biker on left in on bike and biker on right has one leg with air, botj have helmets on",64297.0,18.0,Which description best matches the image?,0.8,1.0,0.6666666666666666,16,5,10,1.3517034285714284,0.2820275714285716,1.3674480909433382,0.2919930428767946,0.8960071714070391,0.027906368277872965,-0.14233942117295115,2.9647546217086007
Encode-Decode_Experiment-16-1,2397102,decoding,-1.292156,0.0,0.33825,0.261772,4,0,False,,0.055792,0,14,14,14,1.0,0.055792,0.402836,,,,,,,,,,,,,"man and women cuting cak. women in red,",29687.0,19.0,Which description best matches the image?,0.3333333333333333,0.2,0.3157894736842105,7,1,6,-0.05528222222222222,-1.2368737777777778,-1.4860467306385197,-1.2805788320569194,0.23513667821071418,-0.9235865693502773,-1.5522478784718199,-0.7625385738527899
Encode-Decode_Experiment-16-1,2347400,decoding,-0.314094,0.428571,0.491429,0.200122,7,3,False,0.044749,0.021446,7,7,14,14,1.0,0.033098,0.329314,,,,,,,,,,,,,"two men on couches smelling wine , window behind them",46588.0,20.0,Which description best matches the image?,0.45,0.375,0.5,9,3,6,0.23851900000000004,-0.552613,-0.5321839012859183,-0.572139633674579,0.23513667821071418,-1.1459491010318406,-2.013175028705609,0.01578016437939896
Encode-Decode_Experiment-16-1,2347025,decoding,1.316784,1.0,0.7055,0.223651,6,6,False,0.078444,,12,0,12,12,1.0,0.078444,0.595553,,,,,,,,,,,,,"eldery east asian women with hoops earring, lots of jewellery had small east asian child on her back , child holding a pink umbrella",46054.0,21.0,Which description best matches the image?,0.9333333333333333,0.5,1.0,14,2,12,0.8972498571428572,0.41953414285714274,1.0583429808635896,0.43435842227429344,-0.20544365058683578,-0.7016355661048922,-0.34405852546720833,1.7608463206333176
Encode-Decode_Experiment-16-1,2394020,decoding,-0.023248,0.333333,0.340667,0.315439,3,1,False,0.202298,0.178846,2,2,4,4,1.0,0.190572,0.669432,,,,,,,,,,,,,"two men with coyboy hats riding by beach, riding on sand with few grassy patches, behind them was sea and then sunset",35341.0,22.0,Which description best matches the image?,0.5,0.2857142857142857,0.5833333333333334,10,2,7,0.7567956,-0.7800436000000001,-0.2485340013144576,-0.8076065158695142,-1.9677649657770355,0.39702777893742375,0.11910674386880117,1.3887642054810427
Encode-Decode_Experiment-16-1,2387122,decoding,1.057662,0.5,0.287667,0.200757,6,3,False,0.195314,0.14451,10,1,15,11,0.7333,0.16197,0.837687,,,,,,,,,,,,,"blonde man crouching with camera behind glass pool, polar bear in behind the glass in water, one paw presses on glass, its head is turned up, behing water are rocks at back of picture",65233.0,23.0,Which description best matches the image?,1.0,1.0,1.0,17,5,12,-0.041064222222222224,1.0987262222222223,0.8056321669606831,1.1375498192964628,0.4554268426094892,0.11677691390014217,1.1739379190624315,-0.7248731899701619
Encode-Decode_Experiment-16-1,2412687,decoding,1.833169,0.818182,0.519273,0.163056,11,9,False,0.052425,0.069346,12,2,15,14,0.9333,0.058453,0.405638,,,,,,,,,,,,,"dog left of photo biting on red frizbee held by man on right who had blakc and white adidas shoes on and shorts, dark lighting",50434.0,24.0,Which description best matches the image?,0.8666666666666667,0.75,1.0,13,3,9,-0.089918,1.923087,1.5619516039725982,1.9910394646965326,0.4554268426094892,-0.8975133034295651,-1.5346814646779205,-0.854293382269824
Encode-Decode_Experiment-16-1,2362704,decoding,-0.844904,0.0,0.071545,0.084679,11,0,False,,0.248676,0,12,14,12,0.8571,0.21425,0.684909,,,,,,,,,,,,,"two brown bears eating pumpkins sitting down, one to the left is looking at camera, one on the right is lookign at pumpkin",32131.0,25.0,Which description best matches the image?,0.8888888888888888,1.0,0.42857142857142855,8,5,3,-0.3286689166666667,-0.5162350833333333,-1.0498606216253799,-0.5344762998125253,0.23513667821071418,0.6290318339808738,0.21613578965330554,-1.486776497235311
Encode-Decode_Experiment-16-1,2369373,decoding,0.512798,0.307692,0.240615,0.130806,13,4,False,0.093803,0.158457,8,8,17,16,0.9412,0.120216,0.569894,,,,,,,,,,,,,,24431.0,26.0,Which description best matches the image?,0.0,0.0,0.0,0,0,0,0.355155875,0.15764212499999997,0.2742491701236972,0.16321242469717895,0.8960071714070391,-0.2923411414374797,-0.5049209849738701,0.3247668482832589
Encode-Decode_Experiment-16-1,2370664,decoding,0.568007,0.5,0.3505,0.263201,4,2,False,0.130431,0.059633,5,6,11,11,1.0,0.091814,0.734111,,,,,,,,,,,,,two men and a women holding a donut up to their mouths,16694.0,28.0,Which description best matches the image?,0.45,0.14285714285714285,0.5714285714285714,9,1,8,-0.1374644,0.7054714,0.3280921912672728,0.730399299987319,-0.42573381498561075,-0.5706323472548657,0.5245949943240552,-0.9802501559536738
Encode-Decode_Experiment-16-1,2379478,decoding,-1.3402,0.25,0.507125,0.191856,8,2,False,0.410153,0.425047,6,9,15,15,1.0,0.419089,0.822161,,,,,,,,,,,,,"two babies lying in bed, one with nappy, drinking milk from bottle",38132.0,29.0,Which description best matches the image?,0.6875,0.8,0.7,11,4,7,-0.046197578947368416,-1.2940024210526317,-1.5329020279237802,-1.339726121454021,0.4554268426094892,2.6361050087019335,1.0766016804599756,-0.7384721386028178
Encode-Decode_Experiment-16-1,2356991,decoding,,0.0,0.0,0.0,7,0,False,,0.035152,0,19,22,19,0.8636,0.034058,0.597775,,,,,,,,,,,,,"man to the left falling head first with red helmet on. ball mid air. man on right stood trying to catch it, in baseball field",53792.0,30.0,Which description best matches the image?,0.875,0.7142857142857143,0.7,14,5,7,-0.243275,,,,1.997457993400914,-1.1365427367763412,-0.3301282715592699,-1.2605565891968293
Encode-Decode_Experiment-17-1,2394020,decoding,1.3108,1.0,0.65925,0.259956,4,4,False,0.157368,,9,0,9,9,1.0,0.157368,0.903861,,,,,,,,,,,,,"Two men were ridign a horse along a beach wearing cowboy hats, the horses were brown and white",30171.0,1.0,Which description best matches the image?,0.4,0.14285714285714285,0.5,8,1,6,0.7567956,0.5540044,1.0525070367507972,0.5735801989278299,-0.8663141437831607,0.07168515525034254,1.5887986850858091,1.3887642054810427
Encode-Decode_Experiment-17-1,2385550,decoding,-0.37788,0.4,0.501,0.267281,5,2,False,0.238673,0.347052,3,5,8,8,1.0,0.30641,0.839571,,,,,,,,,,,,,Two kids had teangerines in their mouths. One way a blonde young boy and one was a rbown haired young girl with a fringe.,30181.0,2.0,Which description best matches the image?,0.5555555555555556,0.0,0.7142857142857143,10,0,10,0.5623889375,-0.9402689375,-0.5943917106406268,-0.973493431129625,-1.0866043081819357,1.5320428025088049,1.1857491694506208,0.8737549515491974
Encode-Decode_Experiment-17-1,2349475,decoding,0.921326,0.333333,0.174667,0.172216,6,2,False,0.088422,0.060155,3,5,8,8,1.0,0.070756,0.727543,,,,,,,,,,,,,One woman was powerign a blender by using a bicyclre while another was holding down the lid of the blender. The woman in the background was hvaing a cigarate and a beer,37886.0,3.0,Which description best matches the image?,0.5,0.4,0.46153846153846156,10,4,6,0.8152660666666667,0.1060599333333333,0.6726693867866077,0.10980757131099625,-1.0866043081819357,-0.7769648665176823,0.483418618236143,1.543660293031781
Encode-Decode_Experiment-17-1,2409918,decoding,-0.028865,0.666667,0.675333,0.300245,3,2,False,0.08667,0.131117,6,2,8,8,1.0,0.097782,0.519195,,,,,,,,,,,,,Two men were riding on elephants in a stream or river. One of the elephants was using their trunk to eat some food.,22347.0,4.0,Which description best matches the image?,0.5,0.3333333333333333,0.5,8,2,5,-0.08443141176470587,0.055566411764705864,-0.2540120257264821,0.05752985628580873,-1.0866043081819357,-0.5121561161331786,-0.8227652436951083,-0.8397586761164787
Encode-Decode_Experiment-17-1,2408717,decoding,0.325875,0.142857,0.101714,0.126253,7,1,False,0.079533,0.166454,2,7,10,9,0.9,0.173022,0.586775,,,,,,,,,,,,,4 people in total were walking down a beach towards the water with their surfboards. Two of the surfboards were green while two of them were white,30183.0,5.0,Which description best matches the image?,0.625,0.2857142857142857,0.6666666666666666,10,2,6,0.2959471818181818,0.029927818181818222,0.09195101146803299,0.03098532052489694,-0.6460239793843857,0.2250676823915777,-0.3990899245688674,0.1679150999443987
Encode-Decode_Experiment-17-1,2410309,decoding,-0.552201,0.285714,0.406,0.21783,7,2,False,0.090971,0.171189,4,7,11,11,1.0,0.142019,0.593076,,,,,,,,,,,,,A mother and her child were both on a laptop each while sitting on a sofa. The kid had their hands on the keyboard and a bottle of coke by their side.,36226.0,6.0,Which description best matches the image?,0.6470588235294118,0.2857142857142857,0.75,11,2,9,0.22219188235294118,-0.7743928823529412,-0.7643996674731947,-0.8017561295691796,-0.42573381498561075,-0.07870889158055172,-0.35958743587673303,-0.027472554278168887
Encode-Decode_Experiment-17-1,2367132,decoding,-0.664706,0.333333,0.497833,0.247478,6,2,False,0.048522,0.052139,3,5,8,8,1.0,0.050783,0.709523,,,,,,,,,,,,,"Two men were playign the wii, with controllers in both hands. There was a girl in the baclground on the sofa.",30792.0,7.0,Which description best matches the image?,0.5454545454545454,0.4,0.5555555555555556,12,2,10,-0.01209007692307691,-0.6526159230769231,-0.8741210732903252,-0.6756761696873362,-1.0866043081819357,-0.9726662345125647,0.3704468921240556,-0.6481168033220155
Encode-Decode_Experiment-17-1,2360001,decoding,-0.300392,0.142857,0.195857,0.176436,7,1,False,0.127645,0.289444,2,8,10,10,1.0,0.257084,0.38494,,,,,,,,,,,,,4 men were standing on scaffolding while trying to raise a big clock up.,21106.0,8.0,Which description best matches the image?,0.45,0.42857142857142855,0.5454545454545454,9,3,6,0.33658571428571427,-0.6369777142857143,-0.5188209156185583,-0.6594853832796173,-0.6460239793843857,1.0487320491059322,-1.6644422186772536,0.27557200849808045
Encode-Decode_Experiment-17-1,2350974,decoding,-0.621856,0.5,0.6605,0.258098,4,2,False,0.158233,0.081848,10,2,14,12,0.8571,0.156343,0.717964,,,,,,,,,,,,,A kid was stood in between a blue motorcycle and a red car while sipping his drink. He was lent against the car and had a red hat on.,29839.0,9.0,Which description best matches the image?,0.8333333333333334,1.0,0.6,10,4,6,0.050771181818181806,-0.6726271818181818,-0.832331266266068,-0.6963945281870295,0.23513667821071418,0.06164190174837717,0.4233655569471484,-0.4815889202277191
Encode-Decode_Experiment-17-1,2362704,decoding,0.193319,0.25,0.222833,0.140528,12,3,False,0.199083,0.238161,5,10,16,15,0.9375,0.215437,0.777788,,,,,,,,,,,,,2 black bears eating pumpkin,7590.0,11.0,Which description best matches the image?,0.5555555555555556,0.2,0.5714285714285714,5,1,4,-0.3286689166666667,0.5219879166666667,-0.03732529331393736,0.5404324100667616,0.6757170070082641,0.6406624114509546,0.7984166414604392,-1.486776497235311
Encode-Decode_Experiment-17-1,150472,decoding,,0.0,0.0,0.0,2,0,False,,0.197314,0,7,7,7,1.0,0.197314,0.597304,,,,,,,,,,,,,2 girls taking a photo of them eating a slice of pizza on a paper plate outside,19608.0,12.0,Which description best matches the image?,0.5625,0.5,0.6,9,2,6,0.04589692857142856,,,,-1.3068944725807106,0.46308789124010724,-0.3330810841563172,-0.4945014690869191
Encode-Decode_Experiment-17-1,2386442,decoding,1.356742,0.833333,0.5055,0.241633,6,5,False,0.114075,,7,0,7,7,1.0,0.114075,0.880998,,,,,,,,,,,,,,7172.0,16.0,Which description best matches the image?,0.0,0.0,0.0,0,0,0,0.054409249999999985,1.30233275,1.0973123416354744,1.348350803378507,-1.3068944725807106,-0.3525124777843767,1.4454650239259503,-0.4719511909648582
Encode-Decode_Experiment-17-1,2356991,decoding,0.440218,0.4,0.299,0.229432,5,2,False,0.099134,0.206782,4,3,8,7,0.875,0.146349,0.770184,,,,,,,,,,,,,One man slidign head first with his arm stretched out to try and get to base safely befor ethe catcher catches the ball,24270.0,17.0,Which description best matches the image?,0.625,0.7142857142857143,0.5,10,5,5,-0.243275,0.683493,0.20346494156312356,0.7076442911027048,-1.0866043081819357,-0.03628226946981016,0.7507453315072585,-1.2605565891968293
Encode-Decode_Experiment-17-1,2374670,decoding,1.250858,1.0,0.6645,0.268216,4,4,False,0.207629,,6,0,6,6,1.0,0.207629,0.820786,,,,,,,,,,,,,A man was standing on the back of a	 red truck that was spraying some fluid oto a mud track.,19605.0,19.0,Which description best matches the image?,0.47368421052631576,0.42857142857142855,0.45454545454545453,9,3,5,0.41830431249999994,0.8325536875000001,0.9940481193027688,0.8619720523778303,-1.5271846369794857,0.5641573155062273,1.0679814738337756,0.492055506324167
Encode-Decode_Experiment-17-1,2345035,decoding,,1.0,1.0,0.0,2,2,False,0.095892,,5,0,5,5,1.0,0.095892,0.672376,,,,,,,,,,,,,"2 girls chasing after a ball, one was wearing blue and one was wearing black and white",27128.0,24.0,Which description best matches the image?,0.42857142857142855,0.4,0.4666666666666667,9,2,7,-0.19332016666666665,,,,-1.7474748013782606,-0.5306748957611928,0.13756338991064238,-1.128219553446886
Encode-Decode_Experiment-17-1,2369373,decoding,,0.0,0.0,0.0,2,0,False,,0.37268,0,4,4,4,1.0,0.37268,0.817977,,,,,,,,,,,,,A pizza chef putting a pizza into a oven that looked like an open mouth,23467.0,29.0,Which description best matches the image?,0.3333333333333333,0.25,0.3333333333333333,5,1,4,0.355155875,,,,-1.9677649657770355,2.1813758850212395,1.050371175351597,0.3247668482832589
Encode-Decode_Experiment-17-1,2379478,decoding,,0.0,0.0,0.0,6,0,False,,0.424713,0,16,17,16,0.9412,0.403134,0.823436,,,,,,,,,,,,,2 babies lying on their backs on their bed while drinking some milk fromm bottles,18017.0,30.0,Which description best matches the image?,0.5625,0.8,0.5,9,4,5,-0.046197578947368416,,,,0.8960071714070391,2.479773194434755,1.0845949629679057,-0.7384721386028178
Encode-Decode_Experiment-18-1,2348899,decoding,,1.0,1.0,0.0,6,6,False,0.164367,,16,0,16,16,1.0,0.164367,0.876424,,,,,,,,,,,,,"three people, two men, one woman, the woman is pointing at the man's tie which is pink and white striped. the men are sat down at what appears to be a restaurant or bar, the table is brown, one man is holding beer, they are all laughing, the woman has blonde hair",58762.0,1.0,Which description best matches the image?,0.6086956521739131,0.3333333333333333,0.7058823529411765,14,2,12,0.666775,,,,0.6757170070082641,0.14026342965059202,1.416789514756323,1.1502875944004063
Encode-Decode_Experiment-18-1,2379478,decoding,2.293972,0.833333,0.333667,0.217817,6,5,False,0.608656,0.558563,9,1,10,10,1.0,0.603647,0.905062,,,,,,,,,,,,,"two babies are lying down on a bed, they are holding and drinking from milk bottles, they are wearing bibs and nappies",22156.0,2.0,Which description best matches the image?,0.6875,1.0,0.6,11,5,6,-0.046197578947368416,2.3401695789473687,2.011353434689022,2.4228596968137577,-0.6460239793843857,4.444458940229472,1.5963280437462208,-0.7384721386028178
Encode-Decode_Experiment-18-1,2385851,decoding,-0.604881,0.0,0.0485,0.080181,8,0,False,,0.361098,0,16,16,16,1.0,0.361098,0.915554,,,,,,,,,,,,,"two men are carrying red suitcases, the leftmost one has his suitcase tied to him, the right one is carrying ti above is head, they are walking on an enclosed sidewalk/passage area",33919.0,3.0,Which description best matches the image?,1.0,1.0,1.0,16,7,9,0.11946729999999998,-0.7243483,-0.8157762610330047,-0.7499432170701811,0.6757170070082641,2.0678920195970805,1.6621049222350117,-0.2996037139705413
Encode-Decode_Experiment-18-1,2356991,decoding,,0.0,0.0,0.0,5,0,False,,0.063727,0,12,15,12,0.8,0.054936,0.647479,,,,,,,,,,,,,"one individual is trying to tackle another to the right of him, the rightmost man is trying to catch the baseball",20923.0,5.0,Which description best matches the image?,0.25,0.2857142857142857,0.2,4,2,2,-0.243275,,,,0.4554268426094892,-0.9319739108114309,-0.018521907814808697,-1.2605565891968293
Encode-Decode_Experiment-18-1,2344622,decoding,1.43743,1.0,0.6564,0.239038,5,5,False,0.136125,,13,0,13,13,1.0,0.136125,0.573734,,,,,,,,,,,,,"a cat is lying on a blue blanket, it is brown/grey, a man has his hand placed on his keyboard to the right of the cat",25559.0,6.0,Which description best matches the image?,0.7142857142857143,0.6,0.7,10,3,7,0.16630163636363637,1.2711283636363637,1.176003962386309,1.3160438070119163,0.0148465138119392,-0.1364600487908776,-0.48084709883233784,-0.1755332921092048
Encode-Decode_Experiment-18-1,150472,decoding,0.295667,0.4,0.3312,0.232694,5,2,False,0.071536,0.121474,5,3,8,8,1.0,0.090263,0.660124,,,,,,,,,,,,,"two women are eating one half-eaten pizza slice, they are both going in for a bite, they appear to be near a cafe/outside, the woman on the right is wearing glasses, they both have brown hair",27137.0,7.0,Which description best matches the image?,0.625,0.75,0.6,10,3,6,0.04589692857142856,0.24977007142857144,0.06249041658848199,0.2585957210018879,-1.0866043081819357,-0.5858295045051568,0.060752646940315846,-0.4945014690869191
Encode-Decode_Experiment-18-1,2394020,decoding,0.787265,0.833333,0.667833,0.210221,6,5,False,0.202672,0.239253,10,1,11,11,1.0,0.205998,0.917159,,,,,,,,,,,,,"two men are riding horses on a beach, they are wearing cowboy hats and checkered shirts, they are near the water",18028.0,8.0,Which description best matches the image?,0.45,0.14285714285714285,0.5833333333333334,9,1,7,0.7567956,0.03046939999999998,0.5419253186540771,0.03154603918887937,-0.42573381498561075,0.5481762945679778,1.67216705433323,1.3887642054810427
Encode-Decode_Experiment-18-1,2356125,decoding,-1.09415,0.0,0.331667,0.303127,3,0,False,,0.040144,0,26,26,26,1.0,0.040144,0.257724,,,,,,,,,,,,,,13597.0,9.0,Which description best matches the image?,0.0,0.0,0.0,0,0,0,-0.08454785714285713,-1.009602142857143,-1.2929397871228823,-1.0452765319877666,2.878618650996014,-1.0769103067149155,-2.461990004974439,-0.8400671554996145
Encode-Decode_Experiment-18-1,2367132,decoding,-0.328323,0.333333,0.400667,0.205082,9,3,False,0.069385,0.036996,7,10,17,17,1.0,0.050333,0.691178,,,,,,,,,,,,,"two men have wii controllers in both hands, they are in a living room, there is a picture on the wall of three camels, there is a girl on the sofa behind them to their left, they have brown/shaved hair and are wearing t-shirts and jeans",40254.0,10.0,Which description best matches the image?,0.7727272727272727,0.6,0.7222222222222222,17,3,13,-0.01209007692307691,-0.3162329230769231,-0.5460608479404843,-0.32740704392598813,0.8960071714070391,-0.97707546775733,0.2554376626275936,-0.6481168033220155
Encode-Decode_Experiment-18-1,2408717,decoding,1.514416,0.625,0.32875,0.19562,8,5,False,0.071526,0.03938,20,2,22,22,1.0,0.068603,0.566379,,,,,,,,,,,,,"four women are walking on a beach carrying surfboards, the two women on the right have green surfboards, while the two on the left have white/multicoloured surfboards. they are wearing swimming costumes and are walking toward the water",38438.0,11.0,Which description best matches the image?,0.75,0.5714285714285714,0.6666666666666666,12,4,6,0.2959471818181818,1.2184688181818182,1.2510851778721774,1.2615235314378102,1.997457993400914,-0.7980605980198593,-0.5269573677310283,0.1679150999443987
Encode-Decode_Experiment-18-1,2371471,decoding,1.201969,1.0,0.66475,0.278917,4,4,False,0.086639,,11,0,11,11,1.0,0.086639,0.681225,,,,,,,,,,,,,"two men are on motorbikes doing tricks, the one on the left is mid-air sitting on his motorbike, while the one on the right is mid-handstand attempt, they are both heading towards a sandy ramp",33069.0,12.0,Which description best matches the image?,0.5,0.6,0.4,10,3,6,1.3517034285714284,-0.14973442857142838,0.9463687289735061,-0.15502530905231954,-0.42573381498561075,-0.6213385295696666,0.19303990513627273,2.9647546217086007
Encode-Decode_Experiment-18-1,2362704,decoding,-0.67707,0.0,0.067,0.098956,8,0,False,,0.137502,0,16,18,16,0.8889,0.126046,0.685506,,,,,,,,,,,,,"two bears are eating pumpkins, the pumpkins are being ravaged, the bears are brown and we can see one clearly, the bear at the back is slightly obscured by the former bear",29027.0,13.0,Which description best matches the image?,0.5555555555555556,0.2,0.5714285714285714,5,1,4,-0.3286689166666667,-0.34840108333333325,-0.8861791636998448,-0.360711869228845,1.1162973358058141,-0.23521707517752063,0.21987852663937166,-1.486776497235311
Encode-Decode_Experiment-18-1,2349475,decoding,,0.0,0.0,0.0,10,0,False,,0.044024,0,17,17,17,1.0,0.044024,0.695881,,,,,,,,,,,,,"three individuals are surrounding a blender, the man is using some kind of lever/pump to turn the blender, the woman on the right is holding the lid, the man at the back is watching, they are outside, the blender appears to hold some kind of greyish substance",39979.0,14.0,Which description best matches the image?,0.7,0.5,0.6153846153846154,14,5,8,0.8152660666666667,,,,0.8960071714070391,-1.0388929178489392,0.2849219039097883,1.543660293031781
Encode-Decode_Experiment-18-1,2369373,decoding,1.879908,0.714286,0.336,0.201226,7,5,False,0.166763,0.316365,13,2,15,15,1.0,0.18671,0.6625,,,,,,,,,,,,,"a chef is wearing a white hat and uniform, he is holding a pizza thingy and putting a pizza into a firey oven, the oven is a stone mouth that is open",29526.0,15.0,Which description best matches the image?,0.8,0.25,0.9166666666666666,12,1,11,0.355155875,1.524752125,1.607534189515346,1.5786293884545528,0.4554268426094892,0.35918675940123806,0.07564836399038863,0.3247668482832589
Encode-Decode_Experiment-18-1,2411268,decoding,0.574801,0.444444,0.336222,0.188278,9,4,False,0.094906,0.107676,11,5,19,16,0.8421,0.083814,0.59206,,,,,,,,,,,,,,12737.0,16.0,Which description best matches the image?,0.0,0.0,0.0,0,0,0,0.05513581818181817,0.5196651818181819,0.3347180943926591,0.5380276011582935,1.336587500204589,-0.6490187160506931,-0.3659569849183469,-0.4700264146612231
Encode-Decode_Experiment-18-1,2386442,decoding,-0.17557,0.375,0.409375,0.195791,8,3,False,0.047223,0.057552,11,9,21,20,0.9524,0.050878,0.703531,,,,,,,,,,,,,,2045.0,17.0,Which description best matches the image?,0.0,0.0,0.0,0,0,0,0.054409249999999985,-0.22997925,-0.39708725651979937,-0.23810558898859494,1.777167829002139,-0.9717353963831142,0.33288159895737274,-0.4719511909648582
Encode-Decode_Experiment-18-1,2350974,decoding,0.453086,0.6,0.4874,0.248518,5,3,False,0.249818,0.401204,8,3,12,11,0.9167,0.302425,0.750324,,,,,,,,,,,,,"a boy is between a red car and a motorcycle, he is drinking what appears to be water in a coca cola bottle, he is outside on a grey road, he is wearing a helmet",21316.0,18.0,Which description best matches the image?,0.75,0.5,0.7,9,2,7,0.050771181818181806,0.4023148181818182,0.2160145620249238,0.4165306511001375,-0.20544365058683578,1.4929965925523834,0.6262382016190204,-0.4815889202277191
