SubjectID,StimID,Phase,svg_z_dec,svg_obs,svg_null_mean,svg_null_std,n_transitions,n_relational,low_n_dec,mean_salience_relational_dec,mean_salience_nonrelational,n_relational_fixations,n_nonrelational_fixations,n_fixations_dec,n_aoi,aoi_prop_dec,mean_salience_dec,enc_q1_accuracy,enc_q1_rt_ms,enc_q1_response,enc_q1_correct_key,enc_q1_question,enc_q2_accuracy,enc_q2_rt_ms,enc_q2_response,enc_q2_correct_key,enc_q2_question,enc_trial_index,enc_total_correct,dec_free_response,dec_rt_ms,dec_trial_index,dec_cue_question,prop_total,prop_relations,prop_objects,n_total_recalled,n_relations_recalled,n_objects_recalled,svg_z_dec_image_mean,svg_z_dec_within,svg_z_dec_z,svg_z_dec_within_z,n_fixations_dec_z,mean_salience_relational_dec_z,svg_z_dec_image_mean_z
Encode-Decode_Experiment-1-1,2362704,decoding,,0.0,0.0,0.0,7,0,False,,0.105714,0,15,19,15,0.7895,0.088457,,,,,,,,,,,,,two bears eating a pumpkin. two black bears.half eaten pumpkin,55163.0,1.0,Which description best matches the image?,0.6666666666666666,0.2,0.7142857142857143,6,1,5,-0.44080836363636366,,,,1.3302837520604551,,-1.7243117139394717
Encode-Decode_Experiment-1-1,2367132,decoding,0.318221,0.75,0.6645,0.268682,4,3,False,0.060864,,10,0,10,10,1.0,0.060864,,,,,,,,,,,,,"two men playing v'deo games, a small child sitting on a sofa in the background. two blonde men with wii controllers",63967.0,2.0,Which description best matches the image?,0.5,0.6,0.4444444444444444,11,3,8,0.11681566666666669,0.20140533333333327,0.0790865857533751,0.20958721879389947,-0.6605059718162767,-0.8887576974017165,-0.3015816682821492
Encode-Decode_Experiment-1-1,2412687,decoding,,0.0,0.0,0.0,4,0,False,,0.063599,0,12,14,12,0.8571,0.065487,,,,,,,,,,,,,a man playing with a dog' the dog is trying to grab the red frisbee' at night,35594.0,3.0,Which description best matches the image?,0.4666666666666667,0.5,0.4444444444444444,7,2,4,-0.12495844444444446,,,,0.22428946101782635,,-0.9184476450818588
Encode-Decode_Experiment-1-1,2408717,decoding,-0.481428,0.25,0.3385,0.183828,8,2,False,0.059474,0.047311,4,20,26,24,0.9231,0.048856,,,,,,,,,,,,,"four women on a beach with surfboards, the ones closer to the photographer had neon green surfboards",51079.0,6.0,Which description best matches the image?,0.5,0.2857142857142857,0.5555555555555556,8,2,5,0.3825427,-0.8639707000000001,-0.7013988642677256,-0.8990686251228959,2.878675759520135,-0.9012813933926712,0.37639814198763005
Encode-Decode_Experiment-1-1,2370664,decoding,-0.541137,0.5,0.6505,0.278118,4,2,False,0.154614,0.159884,7,9,17,16,0.9412,0.159114,,,,,,,,,,,,,"two men and one woman eating donut in the street, the woman was standing in the middle of the two men, she had a red shirt on.",54622.0,7.0,Which description best matches the image?,0.7,0.5714285714285714,0.6428571428571429,14,4,9,-0.33266924999999997,-0.20846775,-0.7596769409430041,-0.21693653890689066,0.8878860356434036,-0.044083957004596025,-1.4484040096075803
Encode-Decode_Experiment-1-1,2356991,decoding,,0.0,0.0,0.0,6,0,False,,0.115091,0,18,20,18,0.9,0.10691,,,,,,,,,,,,,"two baseball player in the middle of a game, the player on the left is diving head first to grab the ball, the player on the right is trying to catch the ball with a focused face",79990.0,8.0,Which description best matches the image?,0.6875,0.5714285714285714,0.5,11,4,5,-0.2498732,,,,1.5514826102689807,,-1.2371569657297696
Encode-Decode_Experiment-1-1,2409918,decoding,-0.921624,0.181818,0.328818,0.159501,11,2,False,0.072718,0.092482,4,13,20,17,0.85,0.088457,,,,,,,,,,,,,"two men sitting on top of two elephants, the elephants are in water the elephant on the right is eating plants.",58745.0,9.0,Which description best matches the image?,0.625,0.6666666666666666,0.6,10,4,6,-0.14996574999999998,-0.77165825,-1.131045588214718,-0.8030060763544873,1.5514826102689807,-0.7819548972025969,-0.9822516474945375
Encode-Decode_Experiment-1-1,2374670,decoding,0.828019,0.5,0.336,0.198063,8,4,False,0.217528,0.201566,20,2,22,22,1.0,0.216077,,,,,,,,,,,,,"a red spray vehicle, a man on the back of a spray vehicle",38925.0,10.0,Which description best matches the image?,0.21052631578947367,0.14285714285714285,0.2727272727272727,4,1,3,0.3517390666666666,0.47627993333333335,0.5766673011045568,0.49562831799229357,1.9938803266860323,0.5227619491644113,0.29780530474041017
Encode-Decode_Experiment-1-1,2394020,decoding,1.555962,0.777778,0.499333,0.178953,9,7,False,0.316395,0.227608,21,1,23,22,0.9565,0.29959,,,,,,,,,,,,,"two men wearing cowboy hats are on horses, the horses are walking alongside a shore",37777.0,11.0,Which description best matches the image?,0.3,0.14285714285714285,0.3333333333333333,6,1,4,0.8102137692307692,0.7457482307692309,1.2871651819806786,0.7760434891200876,2.215079184894558,1.4135391085440603,1.4675643163046723
Encode-Decode_Experiment-1-1,2387122,decoding,0.315373,0.545455,0.494455,0.161713,11,6,False,0.160792,0.179697,14,3,20,17,0.85,0.150246,,,,,,,,,,,,,a big polar bear in a zoo enclosure pawing at the glass that is seperating the photograper from the bear.the photographer had gray hair,61612.0,12.0,Which description best matches the image?,0.6470588235294118,0.4,0.6666666666666666,11,2,8,-0.1310135,0.4463865,0.07630683793694555,0.46452049453577715,1.5514826102689807,0.011578916255920254,-0.9338966017244406
Encode-Decode_Experiment-1-1,2369373,decoding,0.250421,0.714286,0.666,0.192818,7,5,False,0.081628,0.329965,12,1,13,13,1.0,0.100731,,,,,,,,,,,,,,47037.0,13.0,Which description best matches the image?,0.0,0.0,0.0,0,0,0,0.4819225714285715,-0.23150157142857147,0.01291140950550809,-0.2409060857481343,0.003090602809300595,-0.7016771049152545,0.6299573885971317
Encode-Decode_Experiment-1-1,2385550,decoding,1.27053,0.888889,0.669444,0.172719,9,8,False,0.236058,,18,0,18,18,1.0,0.236058,,,,,,,,,,,,,one boy and one girl is eating tangerines next to each other. the boy is on the left of the screne and the girl is on the right of the screen. both children has brown eyes,64294.0,14.0,Which description best matches the image?,0.5555555555555556,0.75,0.5,10,3,7,0.5181881333333334,0.7523418666666666,1.0085735461874459,0.7829049847250525,1.1090848938519293,0.6897145295330368,0.722485869689511
Encode-Decode_Experiment-1-1,2356125,decoding,,0.0,0.0,0.0,5,0,False,,0.071504,0,18,18,18,1.0,0.071504,,,,,,,,,,,,,"four airport personnel (three woemn, one man) is standign next to a converyor belt, the two woman are putting the baggade on to converyor belt manually.",61707.0,15.0,Which description best matches the image?,0.7,0.5714285714285714,0.6923076923076923,14,4,9,-0.14282366666666665,,,,1.1090848938519293,,-0.9640292323999086
Encode-Decode_Experiment-1-1,2350974,decoding,-0.436861,0.125,0.193375,0.156514,8,1,False,0.374164,0.190093,2,15,17,17,1.0,0.211749,,,,,,,,,,,,,a child in between a red and blue car drinking something.,29496.0,16.0,Which description best matches the image?,0.5833333333333334,0.5,0.5,7,2,5,0.1694393636363636,-0.6063003636363636,-0.6578999102878038,-0.6309306951567423,0.8878860356434036,1.934029319840074,-0.16731680392243417
Encode-Decode_Experiment-1-1,2385851,decoding,0.106475,0.222222,0.205778,0.154444,9,2,False,0.180228,0.145542,7,8,16,15,0.9375,0.152109,,,,,,,,,,,,,"two men carrying suitcases, both suitcases are red.",31718.0,17.0,Which description best matches the image?,0.3125,0.14285714285714285,0.4444444444444444,5,1,4,0.29928055555555555,-0.19280555555555556,-0.12758493150002978,-0.2006380838486646,0.6666871774348778,0.18669442365174363,0.16396189797820954
Encode-Decode_Experiment-1-1,2347400,decoding,-1.108892,0.0,0.204167,0.184118,6,0,False,,0.069835,0,21,21,21,1.0,0.069835,,,,,,,,,,,,,two men smelling red wine sitting on a couch. there is a pokemon ball in the background,31252.0,18.0,Which description best matches the image?,0.5,0.375,0.5,10,3,6,0.09093911111111114,-1.199831111111111,-1.3138257195655374,-1.2485730215692998,1.7726814684775065,,-0.3676034877632845
Encode-Decode_Experiment-1-1,2347025,decoding,2.153473,0.923077,0.602077,0.149062,13,12,False,0.08038,,18,0,19,18,0.9474,0.081798,,,,,,,,,,,,,one woamn and a child posing for a picture. the child is on the womans back holding a umbrella.,44220.0,19.0,Which description best matches the image?,0.4,0.5,0.3333333333333333,6,2,4,0.8824851428571429,1.270987857142857,1.8703568594886326,1.3226204375557227,1.3302837520604551,-0.7129214017474211,1.6519585481014818
Encode-Decode_Experiment-1-1,2410309,decoding,0.869228,0.533333,0.405733,0.146797,15,8,False,0.168944,0.189194,14,9,23,23,1.0,0.176868,,,,,,,,,,,,,a woman and a child sitting together on a couch. both of them have a laptop on their laps.,36405.0,20.0,Which description best matches the image?,0.47058823529411764,0.2857142857142857,0.5,8,2,6,0.2634229375,0.6058050625,0.616888729393618,0.6304152729188212,2.215079184894558,0.08502723979423858,0.07247425074460695
Encode-Decode_Experiment-1-1,150472,decoding,0.198436,0.333333,0.298778,0.174139,9,3,False,0.169721,0.152771,6,6,12,12,1.0,0.161246,,,,,,,,,,,,,two women eating pizza from a paper plate in the middle of the street. the woman on the right wears glasses,38149.0,21.0,Which description best matches the image?,0.5,0.5,0.5,8,2,5,0.04337769230769231,0.1550583076923077,-0.03782777245976282,0.16135739268797658,-0.21810825539922515,0.09202789575464992,-0.48895238212306075
Encode-Decode_Experiment-1-1,2386442,decoding,-0.292939,0.357143,0.402286,0.154103,14,5,False,0.108614,0.095325,10,8,18,18,1.0,0.102708,,,,,,,,,,,,,a woman a child and a man are brushing their teeth. the man on the r'ght is wearing a purple shirt.,66095.0,22.0,Which description best matches the image?,0.3888888888888889,0.3333333333333333,0.38461538461538464,7,2,5,0.11202453333333333,-0.40496353333333335,-0.5174269941234156,-0.42141476225861596,1.1090848938519293,-0.4585372056261165,-0.3138058354192423
Encode-Decode_Experiment-1-1,2397102,decoding,-0.70186,0.0,0.094833,0.135117,6,0,False,,0.059363,0,19,21,19,0.9048,0.054078,,,,,,,,,,,,,"one man and one woman is cutting a cake, the man on the right is holding a beer bottle in his other hand whilst cutting hte cake.",67717.0,23.0,Which description best matches the image?,0.5714285714285714,0.6,0.47368421052631576,12,3,9,-0.080163125,-0.621696875,-0.9165482219472215,-0.6469526740310184,1.7726814684775065,,-0.8041562167806162
Encode-Decode_Experiment-1-1,2345035,decoding,-0.963741,0.333333,0.527,0.200953,9,3,False,0.149258,0.26283,6,9,17,15,0.8824,0.196564,,,,,,,,,,,,,two girls chasing a football. one has a jersey that has the number 20 on it.,28746.0,24.0,Which description best matches the image?,0.38095238095238093,0.2,0.4666666666666667,8,1,7,-0.09812730000000003,-0.8656136999999999,-1.1721532563272756,-0.9007783703157326,0.8878860356434036,-0.09234073090931046,-0.849990273652335
Encode-Decode_Experiment-1-1,2411268,decoding,1.847853,0.785714,0.493714,0.158021,14,11,False,0.084992,0.092541,19,1,20,20,1.0,0.08537,,,,,,,,,,,,,a girl with pink boots picking apples form the tree above her head.,23197.0,25.0,Which description best matches the image?,0.4444444444444444,0.3333333333333333,0.42857142857142855,8,2,6,0.11825819999999998,1.7295948,1.572061028148321,1.7998578179279807,1.5514826102689807,-0.6713679586464982,-0.2979011677949658
Encode-Decode_Experiment-1-1,2348899,decoding,0.12414,0.333333,0.3075,0.208098,6,2,False,0.118477,0.128816,7,9,17,16,0.9412,0.12461,,,,,,,,,,,,,"a man at the center of the photograph, there is two toher men on the left side of the man with the pink tie. a woman is on thr roght of the man at the center. the woman is touching the pink tie on the mans neck.",71566.0,26.0,Which description best matches the image?,0.6086956521739131,0.6666666666666666,0.5882352941176471,14,4,10,0.6536947333333334,-0.5295547333333334,-0.11034327237881192,-0.551067352197617,0.8878860356434036,-0.369673023209724,1.0682193760093532
Encode-Decode_Experiment-1-1,2360001,decoding,1.295706,0.25,0.100875,0.115092,8,2,False,0.084079,0.11166,7,11,19,18,0.9474,0.095826,,,,,,,,,,,,,four people fixing a clock standing on a scaffold.,24145.0,27.0,Which description best matches the image?,0.45,0.42857142857142855,0.5454545454545454,9,3,6,0.3624469,0.9332591,1.033146204553468,0.9711717954329135,1.3302837520604551,-0.6795939546463122,0.32512542614720397
Encode-Decode_Experiment-1-1,2349475,decoding,2.117316,0.4,0.1397,0.122939,10,4,False,0.043002,0.070038,10,9,19,19,1.0,0.055809,,,,,,,,,,,,,"there is a blender at the center of the oicture, the man on the left pf the blender is riding a bike, there is a woman on the left of the belnder holding the lid of the belnder, and there is a person in the background.",77043.0,28.0,Which description best matches the image?,0.6,0.5,0.5384615384615384,12,5,7,0.8072902307692308,1.3100257692307693,1.8350663602615809,1.363244224853773,1.3302837520604551,-1.0496916958120992,1.4601051578343942
Encode-Decode_Experiment-1-1,2379478,decoding,,0.0,0.0,0.0,8,0,False,,0.499424,0,22,24,22,0.9167,0.458496,,,,,,,,,,,,,two baby gitls lying in a bed drinking milk form bottles.,22883.0,29.0,Which description best matches the image?,0.5625,0.8,0.5,9,4,5,0.01436823529411764,,,,2.436278043103084,,-0.5629675318629104
Encode-Decode_Experiment-1-1,2383555,decoding,1.132425,0.375,0.195625,0.158399,8,3,False,0.175121,0.227028,9,7,17,16,0.9412,0.189631,,,,,,,,,,,,,two women and one child on a wooden boat. the woman at the front of the boat is holding a childe and the woman at the back of the boat is rowing the boat.,57145.0,30.0,Which description best matches the image?,0.5238095238095238,0.4,0.6363636363636364,11,4,7,0.11173925,1.02068575,0.8737782258967133,1.0621500635785817,0.8878860356434036,0.14068110320152397,-0.3145337114572208
Encode-Decode_Experiment-10-1,2344622,decoding,,0.0,0.0,0.0,3,0,False,,0.169863,0,11,11,11,1.0,0.169863,,,,,,,,,,,,,"cat laying on a blue blanket next to a keyboard while a hand is typing, brownish cat",25060.0,1.0,Which description best matches the image?,0.6428571428571429,0.6,0.6,9,3,6,0.18002336363636365,,,,-0.4393071136077509,,-0.1403126326799322
Encode-Decode_Experiment-10-1,2385550,decoding,-0.949832,0.0,0.166333,0.175119,6,0,False,,0.509965,0,11,12,11,0.9167,0.511118,,,,,,,,,,,,,"two children holding quaters of tangerines in their mouths while smiling boy on left, girl on right look like siblings boy blonde girl brunette with a fringe",34491.0,2.0,Which description best matches the image?,0.8333333333333334,0.75,0.8571428571428571,15,3,12,0.5181881333333334,-1.4680201333333334,-1.1585775848459838,-1.5276569482376314,-0.21810825539922515,,0.722485869689511
Encode-Decode_Experiment-10-1,2385851,decoding,,0.0,0.0,0.0,7,0,False,,0.143913,0,10,10,10,1.0,0.143913,,,,,,,,,,,,,two men carrying suitcases as they go through a covered walkway,22313.0,3.0,Which description best matches the image?,0.4375,0.2857142857142857,0.5555555555555556,7,2,5,0.29928055555555555,,,,-0.6605059718162767,,0.16396189797820954
Encode-Decode_Experiment-10-1,2411268,decoding,,1.0,1.0,0.0,3,3,False,0.106966,,8,0,8,8,1.0,0.106966,,,,,,,,,,,,,"little girl standing under a tree picking apples, while carrying a brown basket, looks to be a large feild",24374.0,4.0,Which description best matches the image?,0.5555555555555556,0.6666666666666666,0.35714285714285715,10,4,5,0.11825819999999998,,,,-1.102903688233328,-0.47338544375064395,-0.2979011677949658
Encode-Decode_Experiment-10-1,2350974,decoding,,1.0,1.0,0.0,5,5,False,0.339673,,13,0,13,13,1.0,0.339673,,,,,,,,,,,,,,6456.0,5.0,Which description best matches the image?,0.0,0.0,0.0,0,0,0,0.1694393636363636,,,,0.003090602809300595,1.6232704720530118,-0.16731680392243417
Encode-Decode_Experiment-10-1,2408717,decoding,1.365532,1.0,0.6582,0.250305,5,5,False,0.056925,,8,0,8,8,1.0,0.056925,,,,,,,,,,,,,"4 girls carrying surfboards walking towards the ocean, 2 surfboardsa are green 2 of them are white with a slight pattern, one girl was untying her hair",37199.0,6.0,Which description best matches the image?,0.8125,0.42857142857142855,1.0,13,3,9,0.3825427,0.9829893,1.1012988278083877,1.0229222338923272,-1.102903688233328,-0.924247509278242,0.37639814198763005
Encode-Decode_Experiment-10-1,2371471,decoding,0.644135,0.5,0.33425,0.257322,4,2,False,0.069844,0.543372,9,2,11,11,1.0,0.15594,,,,,,,,,,,,,"2 people doing a jump on a cycling track, onbe is doing a handstand on the bike, the other following it was a dirt track",38992.0,7.0,Which description best matches the image?,0.4,0.6,0.3333333333333333,8,3,5,1.3568767142857143,-0.7127417142857143,0.39719007235584325,-0.7416961166976993,-0.4393071136077509,-0.807849215388211,2.862328089943575
Encode-Decode_Experiment-10-1,2379478,decoding,0.27414,0.75,0.67625,0.269023,4,3,False,0.323656,,7,0,8,7,0.875,0.284705,,,,,,,,,,,,,,4905.0,9.0,Which description best matches the image?,0.0,0.0,0.0,0,0,0,0.01436823529411764,0.25977176470588237,0.0360619848067346,0.27032472668328456,-1.102903688233328,1.4789596528536444,-0.5629675318629104
Encode-Decode_Experiment-10-1,2369373,decoding,1.456946,0.833333,0.502,0.227416,6,5,False,0.349859,,10,0,10,10,1.0,0.349859,,,,,,,,,,,,,pizza chef placing a pizza into an open mouth oven that is a statue of somesort,24550.0,10.0,Which description best matches the image?,0.4666666666666667,0.25,0.5,7,1,6,0.4819225714285715,0.9750234285714285,1.1905220956774516,1.014632757092719,-0.6605059718162767,1.7150448370629856,0.6299573885971317
Encode-Decode_Experiment-10-1,2345035,decoding,,0.0,0.0,0.0,4,0,False,,0.459983,0,9,9,9,1.0,0.459983,,,,,,,,,,,,,2 girls chasing after a foootball one of them was wearing a white kit with the number 20,25450.0,11.0,Which description best matches the image?,0.5238095238095238,0.4,0.6,11,2,9,-0.09812730000000003,,,,-0.8817048300248024,,-0.849990273652335
Encode-Decode_Experiment-10-1,2409918,decoding,-1.936728,0.2,0.6646,0.239889,5,1,False,0.217689,0.096492,3,7,10,10,1.0,0.132851,,,,,,,,,,,,,2 elephants in a river with 2 men sat on top of them the elephant on the right was eating from a plant,21642.0,12.0,Which description best matches the image?,0.6875,0.6666666666666666,0.6,11,4,6,-0.14996574999999998,-1.78676225,-2.1218226694818982,-1.8593476370541175,-0.6605059718162767,0.5242125355345866,-0.9822516474945375
Encode-Decode_Experiment-10-1,2349475,decoding,,0.0,0.0,0.0,6,0,False,,0.026821,0,11,11,11,1.0,0.026821,,,,,,,,,,,,,"3 people standing around a blender, one man standing back, one lady holidng the lid and another man cycling in order for it to blend, there was some type of smoothie in the blender",37002.0,13.0,Which description best matches the image?,0.75,0.6,0.6923076923076923,15,6,9,0.8072902307692308,,,,-0.4393071136077509,,1.4601051578343942
Encode-Decode_Experiment-10-1,2386442,decoding,,0.0,0.0,0.0,4,0,False,,0.076709,0,8,8,8,1.0,0.076709,,,,,,,,,,,,,"man, woman and child brushing their teeth",9236.0,14.0,Which description best matches the image?,0.2222222222222222,0.16666666666666666,0.23076923076923078,4,1,3,0.11202453333333333,,,,-1.102903688233328,,-0.3138058354192423
Encode-Decode_Experiment-10-1,2348899,decoding,-1.125504,0.0,0.337,0.299421,3,0,False,,0.099821,0,11,11,11,1.0,0.099821,,,,,,,,,,,,,"4 people, 3 guys chatting and a girl touching the tie that the man is wearing it is stripey and she is to the right of the men",33675.0,16.0,Which description best matches the image?,0.5652173913043478,0.5,0.5882352941176471,13,3,10,0.6536947333333334,-1.7791987333333334,-1.3300396137813129,-1.851476860266671,-0.4393071136077509,,1.0682193760093532
Encode-Decode_Experiment-10-1,2383555,decoding,,0.0,0.0,0.0,3,0,False,,0.228327,0,12,12,12,1.0,0.228327,,,,,,,,,,,,,"3 people on a raft, their was a baby and then 2 women the women at the back was rowing",20114.0,17.0,Which description best matches the image?,0.3333333333333333,0.2,0.45454545454545453,7,2,5,0.11173925,,,,-0.21810825539922515,,-0.3145337114572208
Encode-Decode_Experiment-10-1,2356125,decoding,-0.063111,0.285714,0.298286,0.199195,7,2,False,0.261817,0.324187,7,5,16,12,0.75,0.254019,,,,,,,,,,,,,"4 workers, 2 of them security guards and 2 of them helping to put the luggage onto the conveyer belt, there were 3 bags on the conveyer",31054.0,18.0,Which description best matches the image?,0.45,0.42857142857142855,0.46153846153846156,9,3,6,-0.14282366666666665,0.07971266666666665,-0.2931068111338171,0.08295091213727464,0.6666871774348778,0.9217993389078576,-0.9640292323999086
Encode-Decode_Experiment-10-1,2374670,decoding,-0.290921,0.6,0.6696,0.23924,5,3,False,0.297333,0.334734,7,2,9,9,1.0,0.305645,,,,,,,,,,,,,"red truck spraying water, man on the back of the truck holding on",14698.0,20.0,Which description best matches the image?,0.3684210526315789,0.42857142857142855,0.36363636363636365,7,3,4,0.3517390666666666,-0.6426600666666666,-0.5154573553967461,-0.6687674738962659,-0.8817048300248024,1.241793286256595,0.29780530474041017
Encode-Decode_Experiment-10-1,2387122,decoding,,1.0,1.0,0.0,2,2,False,0.079368,,7,0,7,7,1.0,0.079368,,,,,,,,,,,,,polar bear in water enclosure pressed against the glass with its paw,15265.0,22.0,Which description best matches the image?,0.4117647058823529,0.4,0.4166666666666667,7,2,5,-0.1310135,,,,-1.3241025464418539,-0.7220393732170945,-0.9338966017244406
Encode-Decode_Experiment-10-1,2362704,decoding,1.128002,0.6,0.326,0.242907,5,3,False,0.164229,0.309578,7,2,9,9,1.0,0.196529,,,,,,,,,,,,,bears eating the pumpkins,6800.0,23.0,Which description best matches the image?,0.3333333333333333,0.2,0.2857142857142857,3,1,2,-0.44080836363636366,1.5688103636363637,0.8694612228798354,1.6325416784540214,-0.8817048300248024,0.042545781810532764,-1.7243117139394717
Encode-Decode_Experiment-10-1,2370664,decoding,,1.0,1.0,0.0,2,2,False,0.238518,,8,0,8,8,1.0,0.238518,,,,,,,,,,,,,3 people eating donuts on a street,10185.0,24.0,Which description best matches the image?,0.25,0.14285714285714285,0.21428571428571427,5,1,3,-0.33266924999999997,,,,-1.102903688233328,0.7118787684810574,-1.4484040096075803
Encode-Decode_Experiment-10-1,2367132,decoding,,0.0,0.0,0.0,3,0,False,,0.047953,0,8,9,8,0.8889,0.049295,,,,,,,,,,,,,2 men playing a vidoe game holding the remotes in both hands while girl in back watches,18748.0,25.0,Which description best matches the image?,0.5,0.6,0.4444444444444444,11,3,8,0.11681566666666669,,,,-0.8817048300248024,,-0.3015816682821492
Encode-Decode_Experiment-10-1,2347400,decoding,,0.0,0.0,0.0,5,0,False,,0.139014,0,10,10,10,1.0,0.139014,,,,,,,,,,,,,2 men sat on a sofa smelling red wine,13440.0,26.0,Which description best matches the image?,0.45,0.375,0.5,9,3,6,0.09093911111111114,,,,-0.6605059718162767,,-0.3676034877632845
Encode-Decode_Experiment-10-1,2410309,decoding,,0.0,0.0,0.0,2,0,False,,0.099338,0,8,8,8,1.0,0.099338,,,,,,,,,,,,,"woman and baby sat on sofa, woman working on laptop and baby touching the keyboard there was a bottle of diet coke in the middle of them",27124.0,28.0,Which description best matches the image?,0.7647058823529411,0.7142857142857143,0.6666666666666666,13,5,8,0.2634229375,,,,-1.102903688233328,,0.07247425074460695
Encode-Decode_Experiment-10-1,2347025,decoding,,1.0,1.0,0.0,2,2,False,0.168791,,8,0,8,8,1.0,0.168791,,,,,,,,,,,,,baby on womans back holding a redish pinky umbrella,14169.0,29.0,Which description best matches the image?,0.5333333333333333,0.5,0.5,8,2,6,0.8824851428571429,,,,-1.102903688233328,0.08364873224991036,1.6519585481014818
Encode-Decode_Experiment-11-1,2410309,decoding,0.766438,0.833333,0.666,0.218326,6,5,False,0.148439,,17,0,17,17,1.0,0.148439,,,,,,,,,,,,,a woman with a laptop and beside her a baby touching a keyboard of a laptop. some drink plastic bottle in between them,25364.0,3.0,Which description best matches the image?,0.5294117647058824,0.42857142857142855,0.5,9,3,6,0.2634229375,0.5030150624999999,0.5165620868196025,0.523449534408959,0.8878860356434036,-0.09971980070541982,0.07247425074460695
Encode-Decode_Experiment-11-1,2394020,decoding,1.496087,1.0,0.672333,0.219016,6,6,False,0.180755,,10,0,13,10,0.7692,0.139833,,,,,,,,,,,,,two men riding horses on a beach wearing cowboy hats and boots,13614.0,4.0,Which description best matches the image?,0.3,0.14285714285714285,0.3333333333333333,6,1,4,0.8102137692307692,0.6858732307692308,1.228725083487448,0.7137361285472886,0.003090602809300595,0.19144261630442932,1.4675643163046723
Encode-Decode_Experiment-11-1,2360001,decoding,3.366478,0.444444,0.092667,0.104494,9,4,False,0.26909,0.270097,11,4,15,15,1.0,0.269358,,,,,,,,,,,,,4 men standing on something raising a big clock,23472.0,5.0,Which description best matches the image?,0.45,0.42857142857142855,0.5454545454545454,9,3,6,0.3624469,3.0040310999999997,3.0542922527709915,3.126066787801276,0.44548831922635207,0.9873280014562121,0.32512542614720397
Encode-Decode_Experiment-11-1,150472,decoding,-0.6025,0.111111,0.205,0.155832,9,1,False,0.086486,0.120417,6,12,18,18,1.0,0.109106,,,,,,,,,,,,,two women sharing a pizza pslice on a paper plate. on of them had glasses,25174.0,6.0,Which description best matches the image?,0.4375,0.25,0.6,7,1,6,0.04337769230769231,-0.6458776923076923,-0.8195693795875154,-0.6721158122846361,1.1090848938519293,-0.6579072379195298,-0.48895238212306075
Encode-Decode_Experiment-11-1,2356125,decoding,,0.0,0.0,0.0,4,0,False,,0.084856,0,18,18,18,1.0,0.084856,,,,,,,,,,,,,two uniformed officers keeping bags on the conveyor belt. four officers in total but only two helping with the bags,40600.0,7.0,Which description best matches the image?,0.45,0.42857142857142855,0.46153846153846156,9,3,6,-0.14282366666666665,,,,1.1090848938519293,,-0.9640292323999086
Encode-Decode_Experiment-11-1,2356991,decoding,,0.0,0.0,0.0,7,0,False,,0.032614,0,16,16,16,1.0,0.032614,,,,,,,,,,,,,one boy sliding towards the base headfirst. the other boy trying to catch the ball,30802.0,8.0,Which description best matches the image?,0.375,0.2857142857142857,0.4,6,2,4,-0.2498732,,,,0.6666871774348778,,-1.2371569657297696
Encode-Decode_Experiment-11-1,2385851,decoding,-0.80044,0.0,0.064833,0.080997,12,0,False,,0.254745,0,17,17,17,1.0,0.254745,,,,,,,,,,,,,two men under a covered area carrying red suitcases,18940.0,9.0,Which description best matches the image?,0.4375,0.2857142857142857,0.5555555555555556,7,2,5,0.29928055555555555,-1.0997205555555556,-1.0127657569695627,-1.1443955771911252,0.8878860356434036,,0.16396189797820954
Encode-Decode_Experiment-11-1,2344622,decoding,,0.0,0.0,0.0,6,0,False,,0.214105,0,16,16,16,1.0,0.214105,,,,,,,,,,,,,a cat sleeping on a blue blanket next to a keyboard which has a hand on it,17160.0,10.0,Which description best matches the image?,0.5,0.4,0.5,7,2,5,0.18002336363636365,,,,0.6666871774348778,,-0.1403126326799322
Encode-Decode_Experiment-11-1,2374670,decoding,0.566289,0.625,0.507,0.208374,8,5,False,0.240827,0.224487,15,2,17,17,1.0,0.238904,,,,,,,,,,,,,a man standing at the back of a redd truck that is sparying water on what look slike a field,23654.0,11.0,Which description best matches the image?,0.3684210526315789,0.42857142857142855,0.36363636363636365,7,3,4,0.3517390666666666,0.21454993333333344,0.32120964801673624,0.22326580471098043,0.8878860356434036,0.7326825195912116,0.29780530474041017
Encode-Decode_Experiment-11-1,2367132,decoding,0.788538,0.833333,0.662167,0.217068,6,5,False,0.074967,0.082947,13,1,14,14,1.0,0.075537,,,,,,,,,,,,,two men playing a game with the remote controls in both their hands. a girl sitting on the couch behind them,28850.0,12.0,Which description best matches the image?,0.5454545454545454,0.6,0.5,12,3,9,0.11681566666666669,0.6717223333333333,0.538132461378273,0.6990103653912609,0.22428946101782635,-0.7616917372862969,-0.3015816682821492
Encode-Decode_Experiment-11-1,2370664,decoding,,0.0,0.0,0.0,2,0,False,,0.153926,0,11,13,11,0.8462,0.162381,,,,,,,,,,,,,three people standing on a street eating one donut each,13105.0,13.0,Which description best matches the image?,0.35,0.2857142857142857,0.2857142857142857,7,2,4,-0.33266924999999997,,,,0.003090602809300595,,-1.4484040096075803
Encode-Decode_Experiment-11-1,2386442,decoding,-0.167089,0.25,0.275417,0.152114,12,3,False,0.072454,0.073438,8,9,17,17,1.0,0.072975,,,,,,,,,,,,,"one man one woman and a child brushing their teeth. man wearing purple shirt, child wearing checked shirt and woman wearing triped shirt",31046.0,14.0,Which description best matches the image?,0.4444444444444444,0.16666666666666666,0.5384615384615384,8,1,7,0.11202453333333333,-0.27911353333333333,-0.39459298334474213,-0.29045223485842003,0.8878860356434036,-0.7843334984555552,-0.3138058354192423
Encode-Decode_Experiment-11-1,2345035,decoding,-1.604968,0.0,0.327571,0.204098,7,0,False,,0.201564,0,12,14,12,0.8571,0.179982,,,,,,,,,,,,,two girls from diferent teams chasing a football during a match played on a football field,26199.0,15.0,Which description best matches the image?,0.42857142857142855,0.2,0.4,9,1,6,-0.09812730000000003,-1.5068407,-1.7980132819893853,-1.5680545606792242,0.22428946101782635,,-0.849990273652335
Encode-Decode_Experiment-11-1,2379478,decoding,-0.196456,0.3,0.3334,0.170013,10,3,False,0.476113,0.426047,7,11,20,18,0.9,0.401658,,,,,,,,,,,,,two babies lying down on a bed drinking milk from a baby bottle,16120.0,16.0,Which description best matches the image?,0.5625,0.8,0.5,9,4,5,0.01436823529411764,-0.21082423529411765,-0.4232562045965284,-0.21938875400342656,1.5514826102689807,2.8525748468773653,-0.5629675318629104
Encode-Decode_Experiment-11-1,2385550,decoding,2.628302,0.75,0.340167,0.155931,12,9,False,0.217815,0.557702,13,4,17,17,1.0,0.297788,,,,,,,,,,,,,"two children, one boy and one girl with tangerines in their mouth",16245.0,17.0,Which description best matches the image?,0.3333333333333333,0.0,0.42857142857142855,6,0,6,0.5181881333333334,2.1101138666666666,2.3338066052496718,2.19583508208873,0.8878860356434036,0.5253477770416805,0.722485869689511
Encode-Decode_Experiment-11-1,2412687,decoding,,0.0,0.0,0.0,3,0,False,,0.040606,0,15,16,15,0.9375,0.040792,,,,,,,,,,,,,a man holding out a red frisbee which the dog is trying to take with its mouth,18813.0,18.0,Which description best matches the image?,0.4666666666666667,0.5,0.5555555555555556,7,2,5,-0.12495844444444446,,,,0.6666871774348778,,-0.9184476450818588
Encode-Decode_Experiment-11-1,2362704,decoding,-1.010002,0.0,0.133625,0.132302,8,0,False,,0.13404,0,17,17,17,1.0,0.13404,,,,,,,,,,,,,"two bears eating something which looks like a pumpkin, something orange",29454.0,19.0,Which description best matches the image?,0.5555555555555556,0.2,0.5714285714285714,5,1,4,-0.44080836363636366,-0.5691936363636364,-1.2173056136783462,-0.5923165450797765,0.8878860356434036,,-1.7243117139394717
Encode-Decode_Experiment-11-1,2408717,decoding,,0.0,0.0,0.0,2,0,False,,0.129702,0,14,15,14,0.9333,0.125304,,,,,,,,,,,,,4 women on a beach carrying one surfboard each. 2 women have white surfboards and the other two have a neon green surfbpard,32694.0,20.0,Which description best matches the image?,0.625,0.14285714285714285,0.8888888888888888,10,1,8,0.3825427,,,,0.44548831922635207,,0.37639814198763005
Encode-Decode_Experiment-11-1,2348899,decoding,1.539349,1.0,0.667167,0.216217,6,6,False,0.126331,,16,0,16,16,1.0,0.126331,,,,,,,,,,,,,a man sitting with 2 of his male friends standing next to him. a woman touching his pink and white tie,29580.0,21.0,Which description best matches the image?,0.6086956521739131,0.5,0.6470588235294118,14,3,11,0.6536947333333334,0.8856542666666667,1.2709503117298555,0.9216330644849722,0.6666871774348778,-0.2989096359342148,1.0682193760093532
Encode-Decode_Experiment-11-1,2387122,decoding,-1.520218,0.25,0.6595,0.269369,4,1,False,0.194792,0.305626,3,10,15,13,0.8667,0.243299,,,,,,,,,,,,,a polar bear in water behind a glass facade and a man looking at him with a camera around his neck,22692.0,23.0,Which description best matches the image?,0.6470588235294118,0.6,0.6666666666666666,11,3,8,-0.1310135,-1.3892045,-1.7152943116795516,-1.4456395104944413,0.44548831922635207,0.31791392610660935,-0.9338966017244406
Encode-Decode_Experiment-11-1,2371471,decoding,,1.0,1.0,0.0,2,2,False,0.090958,,13,0,14,13,0.9286,0.085034,,,,,,,,,,,,,"two stuntmen on bikes in the air, one of them just sitting and the other doing a handstand while in air",31523.0,24.0,Which description best matches the image?,0.35,0.2,0.3333333333333333,7,1,5,1.3568767142857143,,,,0.22428946101782635,-0.6176151742709332,2.862328089943575
Encode-Decode_Experiment-11-1,2397102,decoding,,0.0,0.0,0.0,4,0,False,,0.06097,0,15,16,15,0.9375,0.057202,,,,,,,,,,,,,"a couple cutting a cake, the man has a beer in his hand. a guinness",16383.0,25.0,Which description best matches the image?,0.47619047619047616,0.4,0.3684210526315789,10,2,7,-0.080163125,,,,0.6666871774348778,,-0.8041562167806162
Encode-Decode_Experiment-11-1,2409918,decoding,,0.0,0.0,0.0,4,0,False,,0.079768,0,16,16,16,1.0,0.079768,,,,,,,,,,,,,two elephants in water with one man on each. the elephant on the right is eating a plant,21386.0,26.0,Which description best matches the image?,0.6875,0.6666666666666666,0.7,11,4,7,-0.14996574999999998,,,,0.6666871774348778,,-0.9822516474945375
Encode-Decode_Experiment-11-1,2347400,decoding,0.004447,0.333333,0.332333,0.224843,6,2,False,0.08957,0.077621,5,5,10,10,1.0,0.083595,,,,,,,,,,,,,two men smelling a glass of red wine each,11968.0,29.0,Which description best matches the image?,0.4,0.125,0.5833333333333334,8,1,7,0.09093911111111114,-0.08649211111111113,-0.22716783536754273,-0.09000576457123308,-0.6605059718162767,-0.630120850555426,-0.3676034877632845
Encode-Decode_Experiment-11-1,2349475,decoding,0.87865,0.4,0.2556,0.164343,10,4,False,0.074185,0.069463,11,5,16,16,1.0,0.07271,,,,,,,,,,,,,a man cycling to power a blender. a woman holding the top lid of the blender and someone standing in the background,23780.0,30.0,Which description best matches the image?,0.6,0.5,0.5384615384615384,12,5,7,0.8072902307692308,0.07135976923076925,0.6260849316149663,0.07425868679504388,0.6666871774348778,-0.7687374425128628,1.4601051578343942
Encode-Decode_Experiment-12-1,2374670,decoding,-1.168423,0.428571,0.671286,0.207728,7,3,False,0.345222,0.337372,11,5,16,16,1.0,0.342769,,,,,,,,,,,,,big red truck with water spraying out the back with man standing on the back,27918.0,2.0,Which description best matches the image?,0.3684210526315789,0.2857142857142857,0.45454545454545453,7,2,5,0.3517390666666666,-1.5201620666666666,-1.3719300620022892,-1.581917094227825,0.6666871774348778,1.67326614763129,0.29780530474041017
Encode-Decode_Experiment-12-1,2394020,decoding,,1.0,1.0,0.0,2,2,False,0.236678,,12,0,12,12,1.0,0.236678,,,,,,,,,,,,,two men wearing cowboy hats riding horses beside water,14163.0,3.0,Which description best matches the image?,0.35,0.14285714285714285,0.5,7,1,6,0.8102137692307692,,,,-0.21810825539922515,0.6953006385361965,1.4675643163046723
Encode-Decode_Experiment-12-1,2360001,decoding,-0.032259,0.166667,0.172333,0.175661,6,1,False,0.23879,0.142498,2,9,11,11,1.0,0.160005,,,,,,,,,,,,,a few men on scaffolding putting up a big old clock,20654.0,4.0,Which description best matches the image?,0.4,0.2857142857142857,0.5454545454545454,8,2,6,0.3624469,-0.3947059,-0.26299417783589385,-0.41074042307325376,-0.4393071136077509,0.7143294485598628,0.32512542614720397
Encode-Decode_Experiment-12-1,2385851,decoding,0.153319,0.428571,0.399429,0.19008,7,3,False,0.189914,0.142564,5,6,11,11,1.0,0.164087,,,,,,,,,,,,,"two people carrying a suitcase each one with a bigger suitcase and one with a red one, walking up a path back facing me",46788.0,5.0,Which description best matches the image?,0.8125,0.5714285714285714,1.0,13,4,9,0.29928055555555555,-0.14596155555555554,-0.0818635457160315,-0.15189109430925435,-0.4393071136077509,0.2739638620462664,0.16396189797820954
Encode-Decode_Experiment-12-1,2383555,decoding,0.818435,0.5,0.329333,0.208528,6,3,False,0.178771,0.196567,6,5,11,11,1.0,0.18686,,,,,,,,,,,,,3 asian people on a raft one rowing and one holding a child,18198.0,6.0,Which description best matches the image?,0.2857142857142857,0.2,0.36363636363636365,6,2,4,0.11173925,0.7066957500000001,0.5673129812054483,0.735404541302956,-0.4393071136077509,0.17356706749431863,-0.3145337114572208
Encode-Decode_Experiment-12-1,2371471,decoding,,1.0,1.0,0.0,4,4,False,0.108898,,16,0,16,16,1.0,0.108898,,,,,,,,,,,,,"two men on bikes up in the air, one is doing a handstand on the bike, a ramp is beneath them",23999.0,7.0,Which description best matches the image?,0.35,0.2,0.3333333333333333,7,1,5,1.3568767142857143,,,,0.6666871774348778,-0.4559784073085402,2.862328089943575
Encode-Decode_Experiment-12-1,2410309,decoding,0.306833,0.75,0.669,0.263987,4,3,False,0.160341,0.108841,8,3,11,11,1.0,0.146295,,,,,,,,,,,,,"a woman and baby on a sofa both looking at laptops, woman is typing",19762.0,9.0,Which description best matches the image?,0.47058823529411764,0.42857142857142855,0.4166666666666667,8,3,5,0.2634229375,0.04341006250000001,0.06797149862784845,0.04517355184426275,-0.4393071136077509,0.00751547244878336,0.07247425074460695
Encode-Decode_Experiment-12-1,2411268,decoding,-0.625771,0.5,0.66675,0.266471,4,2,False,0.087568,0.149781,4,2,6,6,1.0,0.108306,,,,,,,,,,,,,a little girl in pink wellies picking green apples with a red bag,17571.0,12.0,Which description best matches the image?,0.6111111111111112,0.3333333333333333,0.6428571428571429,11,2,9,0.11825819999999998,-0.7440292,-0.842282691187281,-0.7742546244858628,-1.5453014046503797,-0.648158576723693,-0.2979011677949658
Encode-Decode_Experiment-12-1,150472,decoding,-1.064549,0.111111,0.296333,0.173991,9,1,False,0.15629,0.183518,3,10,13,13,1.0,0.177234,,,,,,,,,,,,,two women in dim lighting opening their mouths to a slice of pizza on a paper plate,20333.0,13.0,Which description best matches the image?,0.625,0.25,0.8,10,1,8,0.04337769230769231,-1.1079266923076923,-1.270545397436346,-1.1529350798470763,0.003090602809300595,-0.02898344298960314,-0.48895238212306075
Encode-Decode_Experiment-12-1,2347400,decoding,,0.0,0.0,0.0,4,0,False,,0.058298,0,6,6,6,1.0,0.058298,,,,,,,,,,,,,two men sitting on a sofa smelling their glasses of red wine,14081.0,14.0,Which description best matches the image?,0.5,0.375,0.5833333333333334,10,3,7,0.09093911111111114,,,,-1.5453014046503797,,-0.3676034877632845
Encode-Decode_Experiment-12-1,2379478,decoding,-0.033703,0.333333,0.343667,0.306601,3,1,False,0.421982,0.381393,2,7,9,9,1.0,0.390413,,,,,,,,,,,,,two babies lying down with bottles of milk in their mouths,18880.0,16.0,Which description best matches the image?,0.4375,0.4,0.5,7,2,5,0.01436823529411764,-0.04807123529411764,-0.26440357244506674,-0.05002408001086331,-0.8817048300248024,2.3648624816353756,-0.5629675318629104
Encode-Decode_Experiment-12-1,2397102,decoding,,0.0,0.0,0.0,2,0,False,,0.05533,0,10,10,10,1.0,0.05533,,,,,,,,,,,,,"a man and a woman cutting into a cake, the man is holding a beer",14541.0,19.0,Which description best matches the image?,0.38095238095238093,0.4,0.3157894736842105,8,2,6,-0.080163125,,,,-0.6605059718162767,,-0.8041562167806162
Encode-Decode_Experiment-12-1,2409918,decoding,-1.126515,0.333333,0.666667,0.295898,3,1,False,0.056238,0.081457,5,4,9,9,1.0,0.067446,,,,,,,,,,,,,"two elephants in water with two men on them, one elephant is eating a plant",20376.0,21.0,Which description best matches the image?,0.5625,0.3333333333333333,0.7,9,2,7,-0.14996574999999998,-0.9765492499999999,-1.3310263852147433,-1.0162205634546344,-0.8817048300248024,-0.9304372784478719,-0.9822516474945375
Encode-Decode_Experiment-12-1,2349475,decoding,0.345877,0.25,0.176,0.213949,4,1,False,0.039053,0.060433,3,4,7,7,1.0,0.05127,,,,,,,,,,,,,"a blender full of mixture, one man is pedal powering the blender and one woman is holdingthe lid",30298.0,22.0,Which description best matches the image?,0.55,0.3,0.6153846153846154,11,3,8,0.8072902307692308,-0.4614132307692308,0.10607981103819827,-0.4801576708575948,-1.3241025464418539,-1.0852716062209335,1.4601051578343942
Encode-Decode_Experiment-12-1,2408717,decoding,,0.0,0.0,0.0,2,0,False,,0.061316,0,5,5,5,1.0,0.061316,,,,,,,,,,,,,4 surfers walking to the water holding their surfboards,14438.0,26.0,Which description best matches the image?,0.4375,0.2857142857142857,0.4444444444444444,7,2,4,0.3825427,,,,-1.7665002628589053,,0.37639814198763005
Encode-Decode_Experiment-12-1,2347025,decoding,,1.0,1.0,0.0,2,2,False,0.135576,,6,0,6,6,1.0,0.135576,,,,,,,,,,,,,"a granny with a baby on her back, baby is holding an umbrella",14750.0,27.0,Which description best matches the image?,0.4666666666666667,0.5,0.4166666666666667,7,2,5,0.8824851428571429,,,,-1.5453014046503797,-0.21561354281452008,1.6519585481014818
Encode-Decode_Experiment-13-1,2386442,decoding,1.175095,0.571429,0.330429,0.20509,7,4,False,0.036244,0.058128,7,5,12,12,1.0,0.045363,,,,,,,,,,,,,woman man and child all burshing teeth man in purple shirt man on right woman left baby middle,32023.0,1.0,Which description best matches the image?,0.5,0.6666666666666666,0.38461538461538464,9,4,5,0.11202453333333333,1.0630704666666666,0.9154256413907618,1.1062566159648182,-0.21810825539922515,-1.110580283946539,-0.3138058354192423
Encode-Decode_Experiment-13-1,2369373,decoding,-1.02837,0.333333,0.651,0.308903,3,1,False,0.078988,0.18787,10,2,12,12,1.0,0.097135,,,,,,,,,,,,,chef with white hat and apron on left placing pizza on pizza pan into oven shaped like someone with mouth open on right,33847.0,2.0,Which description best matches the image?,0.6,0.5,0.5833333333333334,9,2,7,0.4819225714285715,-1.5102925714285715,-1.2352334254382402,-1.57164666085043,-0.21810825539922515,-0.7254631174448375,0.6299573885971317
Encode-Decode_Experiment-13-1,2360001,decoding,-0.63251,0.222222,0.338111,0.183221,9,2,False,0.306342,0.269729,4,8,12,12,1.0,0.281933,,,,,,,,,,,,,4 men on scaffolding raising clock up on left side of building,23887.0,3.0,Which description best matches the image?,0.45,0.42857142857142855,0.5454545454545454,9,3,6,0.3624469,-0.9949569,-0.8488601913751038,-1.0353760053894636,-0.21810825539922515,1.3229630540137967,0.32512542614720397
Encode-Decode_Experiment-13-1,2347400,decoding,,0.0,0.0,0.0,2,0,False,,0.041128,0,11,11,11,1.0,0.041128,,,,,,,,,,,,,two men on sofa sniffing red wine,10157.0,4.0,Which description best matches the image?,0.4,0.25,0.5,8,2,6,0.09093911111111114,,,,-0.4393071136077509,,-0.3676034877632845
Encode-Decode_Experiment-13-1,2362704,decoding,,0.0,0.0,0.0,2,0,False,,0.108096,0,8,8,8,1.0,0.108096,,,,,,,,,,,,,two bears eating pumpkins brow bears,12264.0,5.0,Which description best matches the image?,0.4444444444444444,0.2,0.42857142857142855,4,1,3,-0.44080836363636366,,,,-1.102903688233328,,-1.7243117139394717
Encode-Decode_Experiment-13-1,2344622,decoding,,1.0,1.0,0.0,3,3,False,0.171126,,9,0,10,9,0.9,0.16143,,,,,,,,,,,,,brown spripyish cat asleep on blue blanket on desk on left man typing on keybpard next to cat on right,31150.0,6.0,Which description best matches the image?,1.0,1.0,0.9,14,5,9,0.18002336363636365,,,,-0.6605059718162767,0.104686739544068,-0.1403126326799322
Encode-Decode_Experiment-13-1,2385851,decoding,,0.0,0.0,0.0,2,0,False,,0.204618,0,5,5,5,1.0,0.204618,,,,,,,,,,,,,two men carrying red suitcases through underpass thing,21170.0,10.0,Which description best matches the image?,0.4375,0.42857142857142855,0.4444444444444444,7,3,4,0.29928055555555555,,,,-1.7665002628589053,,0.16396189797820954
Encode-Decode_Experiment-13-1,2379478,decoding,-0.020923,0.666667,0.673,0.302699,3,2,False,0.425838,0.841387,5,2,7,7,1.0,0.544567,,,,,,,,,,,,,two babie drink milk next to eachother out of bottle while lying on a bed,21189.0,11.0,Which description best matches the image?,0.625,1.0,0.5,10,5,5,0.01436823529411764,-0.03529123529411764,-0.25192984453285816,-0.036724905595491804,-1.3241025464418539,2.399604475693736,-0.5629675318629104
Encode-Decode_Experiment-13-1,2347025,decoding,,1.0,1.0,0.0,3,3,False,0.101435,,8,0,9,8,0.8889,0.119073,,,,,,,,,,,,,mum carrying baby on back baby holding umbrella,13789.0,16.0,Which description best matches the image?,0.4666666666666667,0.75,0.3333333333333333,7,3,4,0.8824851428571429,,,,-0.8817048300248024,-0.5232189419707665,1.6519585481014818
Encode-Decode_Experiment-13-1,2383555,decoding,-0.710343,0.0,0.06875,0.096784,8,0,False,,0.19994,0,14,14,14,1.0,0.19994,,,,,,,,,,,,,four people on boat one rowing one carrying baby,15271.0,17.0,Which description best matches the image?,0.3333333333333333,0.2,0.45454545454545453,7,2,5,0.11173925,-0.8220822499999999,-0.924827927258588,-0.8554784997285633,0.22428946101782635,,-0.3145337114572208
Encode-Decode_Experiment-13-1,2349475,decoding,0.733089,0.333333,0.163,0.23235,3,1,False,0.101825,0.16438,2,6,8,8,1.0,0.148741,,,,,,,,,,,,,three people one blender in garden one hold lid one ride bike to power it,17671.0,27.0,Which description best matches the image?,0.55,0.3,0.5384615384615384,11,3,7,0.8072902307692308,-0.0742012307692308,0.4840122940070639,-0.07721557979931386,-1.102903688233328,-0.5197050992107144,1.4601051578343942
Encode-Decode_Experiment-13-1,2348899,decoding,0.018788,0.666667,0.661,0.301609,3,2,False,0.161789,0.018824,4,3,7,7,1.0,0.100518,,,,,,,,,,,,,three men one woman shes playing with mans pink and whote stripe tie,17678.0,28.0,Which description best matches the image?,0.6086956521739131,0.3333333333333333,0.7058823529411765,14,2,12,0.6536947333333334,-0.6349067333333334,-0.21317051674555657,-0.6606991693344104,-1.3241025464418539,0.020561739927130146,1.0682193760093532
Encode-Decode_Experiment-13-1,2410309,decoding,0.012783,0.333333,0.3305,0.221655,6,2,False,0.21398,0.276952,4,7,11,11,1.0,0.254053,,,,,,,,,,,,,babay on right mum on left on sofa both on keyboards on two different laptops,19773.0,29.0,Which description best matches the image?,0.5882352941176471,0.5714285714285714,0.5,10,4,6,0.2634229375,-0.2506399375,-0.21903160720821796,-0.26082192834665985,-0.4393071136077509,0.4907949899011689,0.07247425074460695
Encode-Decode_Experiment-13-1,2356991,decoding,,0.0,0.0,0.0,8,0,False,,0.053085,0,15,15,15,1.0,0.053085,,,,,,,,,,,,,man closest dove to floor man behind standing up ready to catch ball,17896.0,30.0,Which description best matches the image?,0.625,0.8571428571428571,0.4,10,6,4,-0.2498732,,,,0.44548831922635207,,-1.2371569657297696
Encode-Decode_Experiment-14-1,2369373,decoding,0.656337,0.5,0.3938,0.161807,10,5,False,0.119415,0.485564,13,4,17,17,1.0,0.205568,,,,,,,,,,,,,a chef in a white uniform using a pizza slice to get pizza out of an open over with fire. above the oven there is a stone figure of a face,65556.0,1.0,Which description best matches the image?,0.9333333333333333,0.75,0.9166666666666666,14,3,11,0.4819225714285715,0.17441442857142847,0.4090996520103634,0.1814998361603116,0.8878860356434036,-0.36122178087913737,0.6299573885971317
Encode-Decode_Experiment-14-1,2387122,decoding,-0.505286,0.2,0.324,0.245406,5,1,False,0.158599,0.151713,4,4,14,8,0.5714,0.12785,,,,,,,,,,,,,a white polar bear is in the water of an aquarium with paws on the glass. the woman is wearing glasses and looking closely at the polar bear,38986.0,3.0,Which description best matches the image?,0.6470588235294118,0.8,0.5833333333333334,11,4,7,-0.1310135,-0.3742725,-0.7246851084406106,-0.38947693711871134,0.22428946101782635,-0.008179691879449195,-0.9338966017244406
Encode-Decode_Experiment-14-1,2408717,decoding,,1.0,1.0,0.0,4,4,False,0.083777,,11,0,11,11,1.0,0.083777,,,,,,,,,,,,,four women are carrying their surfboards to the sea. two have a white surfboard and two have a green one,31476.0,4.0,Which description best matches the image?,0.5625,0.14285714285714285,0.7777777777777778,9,1,7,0.3825427,,,,-0.4393071136077509,-0.6823149303220448,0.37639814198763005
Encode-Decode_Experiment-14-1,2362704,decoding,-0.379442,0.142857,0.212143,0.182599,7,1,False,0.094662,0.100767,2,7,12,9,0.75,0.080145,,,,,,,,,,,,,two black bears are laying down and eating pumpkins,22395.0,5.0,Which description best matches the image?,0.6666666666666666,0.4,0.5714285714285714,6,2,4,-0.44080836363636366,0.06136636363636366,-0.6018569538722246,0.06385930932997744,-0.21810825539922515,-0.5842426779036699,-1.7243117139394717
Encode-Decode_Experiment-14-1,2348899,decoding,1.158582,0.222222,0.097889,0.107315,9,2,False,0.045404,0.164044,5,8,13,13,1.0,0.118413,,,,,,,,,,,,,three men and one woman are in this picture. the three men are sat down and the woman is touching the third man's pink and white tie,45677.0,6.0,Which description best matches the image?,0.5652173913043478,0.3333333333333333,0.6470588235294118,13,2,11,0.6536947333333334,0.5048872666666666,0.8993083746447289,0.5253977949530659,0.003090602809300595,-1.028050028351471,1.0682193760093532
Encode-Decode_Experiment-14-1,2409918,decoding,-0.14946,0.285714,0.317,0.209325,7,2,False,0.114083,0.086029,3,11,14,14,1.0,0.092041,,,,,,,,,,,,,two grey elephants are swimming in water of a cave and two men are riding them,26700.0,7.0,Which description best matches the image?,0.625,0.5,0.6,10,3,6,-0.14996574999999998,0.0005057499999999715,-0.3773864614852488,0.0005262955759447278,0.22428946101782635,-0.40926231830631005,-0.9822516474945375
Encode-Decode_Experiment-14-1,2397102,decoding,0.724589,0.272727,0.176182,0.133242,11,3,False,0.045029,0.046818,7,10,17,17,1.0,0.046081,,,,,,,,,,,,,a man and a woman are cutting a cake. the man is holding a beer bottle in the other hand. the woman is wearing a pink dress,34121.0,8.0,Which description best matches the image?,0.6666666666666666,0.4,0.631578947368421,14,2,12,-0.080163125,0.804752125,0.47571599609988297,0.8374443561436503,0.8878860356434036,-1.0314287233130595,-0.8041562167806162
Encode-Decode_Experiment-14-1,2371471,decoding,1.289033,1.0,0.667,0.258333,4,4,False,0.170181,,11,0,15,11,0.7333,0.127736,,,,,,,,,,,,,"two men are riding motocycles and jumping in mid air, headed toward a dirt ramp. the man in front is doing a handstand on the bike",35350.0,9.0,Which description best matches the image?,0.5,0.4,0.4666666666666667,10,2,7,1.3568767142857143,-0.06784371428571423,1.026633122678807,-0.07059979571771088,0.44548831922635207,0.09617242824086501,2.862328089943575
Encode-Decode_Experiment-14-1,2367132,decoding,-1.306166,0.090909,0.307182,0.165578,11,1,False,0.091676,0.030088,2,11,15,13,0.8667,0.042398,,,,,,,,,,,,,two men are holding the remote in both hands and a girl is sat on the couch behind,24467.0,10.0,Which description best matches the image?,0.5,0.6,0.4444444444444444,11,3,8,0.11681566666666669,-1.4229816666666666,-1.5063720576056807,-1.4807888399746505,0.44548831922635207,-0.6111460996511451,-0.3015816682821492
Encode-Decode_Experiment-14-1,2385550,decoding,0.148202,0.125,0.106375,0.125673,8,1,False,0.227269,0.16972,2,10,14,12,0.8571,0.163983,,,,,,,,,,,,,a boy on the left and a girl on the right have tangerines in their mouths,24721.0,11.0,Which description best matches the image?,0.3888888888888889,0.5,0.35714285714285715,7,2,5,0.5181881333333334,-0.36998613333333336,-0.08685791705615445,-0.38501644119474937,0.22428946101782635,0.6105269294866337,0.722485869689511
Encode-Decode_Experiment-14-1,2370664,decoding,-0.880151,0.0,0.3315,0.37664,2,0,False,,0.238992,0,5,6,5,0.8333,0.212111,,,,,,,,,,,,,"three people have sugar donuts in their mouths, eating them outside on the street",22622.0,12.0,Which description best matches the image?,0.35,0.14285714285714285,0.35714285714285715,7,1,5,-0.33266924999999997,-0.54748175,-1.09056648667301,-0.5697226355620358,-1.5453014046503797,,-1.4484040096075803
Encode-Decode_Experiment-14-1,2410309,decoding,-0.810111,0.0,0.067273,0.083041,11,0,False,,0.083733,0,16,16,16,1.0,0.083733,,,,,,,,,,,,,a woman and a baby are both using two separate laptops,20527.0,13.0,Which description best matches the image?,0.29411764705882354,0.14285714285714285,0.3333333333333333,5,1,4,0.2634229375,-1.0735339375000001,-1.0222049919178389,-1.1171451545878741,0.6666871774348778,,0.07247425074460695
Encode-Decode_Experiment-14-1,2344622,decoding,0.517849,0.714286,0.601857,0.217107,7,5,False,0.129103,,13,0,13,13,1.0,0.129103,,,,,,,,,,,,,a cat is lying down,14068.0,14.0,Which description best matches the image?,0.14285714285714285,0.2,0.1,2,1,1,0.18002336363636365,0.3378256363636364,0.2739305102962837,0.35154945696274414,0.003090602809300595,-0.2739343227781528,-0.1403126326799322
Encode-Decode_Experiment-14-1,2411268,decoding,1.243391,0.571429,0.312143,0.208531,7,4,False,0.147918,0.117184,7,4,13,11,0.8462,0.12006,,,,,,,,,,,,,a girl with pink boots is picking apples from a high branch and putting them into a red bag,26178.0,15.0,Which description best matches the image?,0.6111111111111112,0.3333333333333333,0.6428571428571429,11,2,9,0.11825819999999998,1.1251327999999998,0.9820849310223888,1.1708401680481455,0.003090602809300595,-0.10441393423872003,-0.2979011677949658
Encode-Decode_Experiment-14-1,2360001,decoding,0.07044,0.1,0.0929,0.100795,10,1,False,0.068476,0.190272,2,11,14,13,0.9286,0.166395,,,,,,,,,,,,,"a group of people are stood on scaffolding, attempting to raise the clock",21349.0,16.0,Which description best matches the image?,0.4,0.5714285714285714,0.36363636363636365,8,4,4,0.3624469,-0.2920069,-0.16275635445123757,-0.3038693813452226,0.22428946101782635,-0.8201746946080859,0.32512542614720397
Encode-Decode_Experiment-14-1,2412687,decoding,-0.049665,0.333333,0.348333,0.302026,3,1,False,0.022005,0.239202,4,3,8,7,0.875,0.10105,,,,,,,,,,,,,,9321.0,17.0,Which description best matches the image?,0.0,0.0,0.0,0,0,0,-0.12495844444444446,0.07529344444444445,-0.2799830438797047,0.07835216353683498,-1.102903688233328,-1.2388715841013616,-0.9184476450818588
Encode-Decode_Experiment-14-1,2386442,decoding,-0.222458,0.285714,0.33,0.199074,7,2,False,0.07239,0.057909,4,6,10,10,1.0,0.063701,,,,,,,,,,,,,,9158.0,18.0,Which description best matches the image?,0.0,0.0,0.0,0,0,0,0.11202453333333333,-0.33448253333333333,-0.448635067912119,-0.3480705437946254,-0.6605059718162767,-0.784910129062333,-0.3138058354192423
Encode-Decode_Experiment-14-1,2345035,decoding,,0.0,0.0,0.0,5,0,False,,0.209946,0,7,10,7,0.7,0.171448,,,,,,,,,,,,,"two girls, one with a black top and one with a blue top are chasing the football in a field",26088.0,19.0,Which description best matches the image?,0.47619047619047616,0.2,0.5333333333333333,10,1,8,-0.09812730000000003,,,,-0.6605059718162767,,-0.849990273652335
Encode-Decode_Experiment-14-1,2349475,decoding,0.10635,0.2,0.1844,0.146686,10,2,False,0.074689,0.053764,4,10,14,14,1.0,0.059742,,,,,,,,,,,,,one person is riding a bike next to the blender and the woman is holding the lid of the blender,29862.0,21.0,Which description best matches the image?,0.4,0.2,0.46153846153846156,8,2,6,0.8072902307692308,-0.7009402307692307,-0.12770693588101775,-0.7294152099961464,0.22428946101782635,-0.7641964764844879,1.4601051578343942
Encode-Decode_Experiment-14-1,2379478,decoding,-0.499393,0.333333,0.455167,0.243963,6,2,False,0.442277,0.313625,4,3,11,7,0.6364,0.262572,,,,,,,,,,,,,"two babies are lying on a bed, drinking milk out of a bottle",17597.0,22.0,Which description best matches the image?,0.5625,0.8,0.5,9,4,5,0.01436823529411764,-0.5137612352941177,-0.7189333339033144,-0.5346322594705155,-0.4393071136077509,2.547717452956544,-0.5629675318629104
Encode-Decode_Experiment-14-1,2347025,decoding,0.364068,0.727273,0.666727,0.166303,11,8,False,0.127211,0.014306,13,1,15,14,0.9333,0.116392,,,,,,,,,,,,,a woman is holding a baby on her back and the baby is holding a pink umbrella,24254.0,23.0,Which description best matches the image?,0.5333333333333333,0.75,0.4166666666666667,8,3,5,0.8824851428571429,-0.5184171428571429,0.12383486459461346,-0.5394773085114013,0.44548831922635207,-0.2909809650910206,1.6519585481014818
Encode-Decode_Experiment-14-1,2356991,decoding,,0.0,0.0,0.0,3,0,False,,0.040663,0,15,16,15,0.9375,0.047556,,,,,,,,,,,,,one man on the base is trying to catch the ball. another man is diving head-first for the base,26070.0,24.0,Which description best matches the image?,0.375,0.2857142857142857,0.4,6,2,4,-0.2498732,,,,0.6666871774348778,,-1.2371569657297696
Encode-Decode_Experiment-14-1,2350974,decoding,1.329524,0.5,0.2888,0.158854,10,5,False,0.190157,0.309746,11,3,15,14,0.9333,0.204647,,,,,,,,,,,,,,948.0,25.0,Which description best matches the image?,0.0,0.0,0.0,0,0,0,0.1694393636363636,1.1600846363636363,1.0661537578034734,1.2072118869790944,0.44548831922635207,0.27615325638137567,-0.16731680392243417
Encode-Decode_Experiment-14-1,2385851,decoding,0.408758,0.142857,0.094571,0.118128,7,1,False,0.11042,0.343492,2,6,10,8,0.8,0.230591,,,,,,,,,,,,,two men are carrying two big red suitcases up a ramp under a cover. they're carrying the suitcases on their backs,31927.0,26.0,Which description best matches the image?,0.8125,0.5714285714285714,1.0,13,4,9,0.29928055555555555,0.10947744444444446,0.1674538708854273,0.11392485353801336,-0.6605059718162767,-0.44226541069110636,0.16396189797820954
Encode-Decode_Experiment-14-1,2383555,decoding,,0.0,0.0,0.0,5,0,False,,0.117097,0,11,11,11,1.0,0.117097,,,,,,,,,,,,,,1875.0,27.0,Which description best matches the image?,0.0,0.0,0.0,0,0,0,0.11173925,,,,-0.4393071136077509,,-0.3145337114572208
Encode-Decode_Experiment-14-1,2374670,decoding,2.865198,0.8,0.3043,0.173007,10,8,False,0.200877,0.604346,15,2,17,17,1.0,0.248344,,,,,,,,,,,,,a man is on the back of a red truck that is spraying water on the ground,21762.0,28.0,Which description best matches the image?,0.3684210526315789,0.2857142857142857,0.36363636363636365,7,2,4,0.3517390666666666,2.5134589333333333,2.5650254039578533,2.615565629129391,0.8878860356434036,0.3727388830166518,0.29780530474041017
Encode-Decode_Experiment-14-1,150472,decoding,1.068055,0.714286,0.503,0.197823,7,5,False,0.06774,0.027978,8,4,12,12,1.0,0.054486,,,,,,,,,,,,,two women are sharing a pizza slice off a paper plate,17318.0,29.0,Which description best matches the image?,0.375,0.25,0.5,6,1,5,0.04337769230769231,1.0246773076923077,0.8109508498631558,1.0663037742154375,-0.21810825539922515,-0.8268059465860302,-0.48895238212306075
Encode-Decode_Experiment-14-1,2347400,decoding,1.364864,1.0,0.6634,0.246618,5,5,False,0.09168,,11,0,11,11,1.0,0.09168,,,,,,,,,,,,,two men are sat on the couch and both have a glass of red wine that they are smelling,29826.0,30.0,Which description best matches the image?,0.5,0.375,0.5833333333333334,10,3,7,0.09093911111111114,1.273924888888889,1.1006468363963884,1.3256767832093972,-0.4393071136077509,-0.6111100602382215,-0.3676034877632845
Encode-Decode_Experiment-15-1,2348899,decoding,0.855981,0.333333,0.199889,0.155896,9,3,False,0.071757,0.051705,9,12,21,21,1.0,0.060299,,,,,,,,,,,,,women reaching to hold mans pink and white tie with two other men stood to the left of him,17186.0,2.0,Which description best matches the image?,0.6521739130434783,0.6666666666666666,0.6470588235294118,15,4,11,0.6536947333333334,0.2022862666666666,0.6039591931140385,0.2105039391419679,1.7726814684775065,-0.7906133661574943,1.0682193760093532
Encode-Decode_Experiment-15-1,2344622,decoding,,1.0,1.0,0.0,3,3,False,0.063025,,9,0,9,9,1.0,0.063025,,,,,,,,,,,,,cat lying on blue blanket to the left of someone typing on a keyboard,15099.0,8.0,Which description best matches the image?,0.7142857142857143,0.8,0.6,10,4,6,0.18002336363636365,,,,-0.8817048300248024,-0.8692874045697361,-0.1403126326799322
Encode-Decode_Experiment-15-1,2360001,decoding,,0.0,0.0,0.0,4,0,False,,0.047729,0,10,10,10,1.0,0.047729,,,,,,,,,,,,,multiple men stood on scaffolding raising a large clock above their heads in a balck and white image,17465.0,9.0,Which description best matches the image?,0.65,0.5714285714285714,0.8181818181818182,13,4,9,0.3624469,,,,-0.6605059718162767,,0.32512542614720397
Encode-Decode_Experiment-15-1,2411268,decoding,-1.068241,0.333333,0.659,0.304863,3,1,False,0.075112,0.078353,2,8,10,10,1.0,0.077705,,,,,,,,,,,,,little girl with pink wellies reaching up in an orchard to pick a green apple off the tree above her head and she is holding a red bag,27680.0,11.0,Which description best matches the image?,0.8888888888888888,0.8333333333333334,0.7142857142857143,16,5,10,0.11825819999999998,-1.1864992,-1.2741489188332065,-1.234699515218995,-0.6605059718162767,-0.760385308567816,-0.2979011677949658
Encode-Decode_Experiment-15-1,2356125,decoding,,0.0,0.0,0.0,3,0,False,,0.317386,0,5,5,5,1.0,0.317386,,,,,,,,,,,,,4 people in the image with two women in uniform lifting luggage onto a conveyorbelt and two others stood against a wall in the back,27919.0,12.0,Which description best matches the image?,0.5,0.42857142857142855,0.5384615384615384,10,3,7,-0.14282366666666665,,,,-1.7665002628589053,,-0.9640292323999086
Encode-Decode_Experiment-15-1,2362704,decoding,,1.0,1.0,0.0,2,2,False,0.275856,,8,0,8,8,1.0,0.275856,,,,,,,,,,,,,two bears in the middle of eating pumpkins,11259.0,14.0,Which description best matches the image?,0.4444444444444444,0.2,0.42857142857142855,4,1,3,-0.44080836363636366,,,,-1.102903688233328,1.0482886684164991,-1.7243117139394717
Encode-Decode_Experiment-15-1,2386442,decoding,-0.023239,0.333333,0.340333,0.301212,3,1,False,0.099836,0.121788,6,3,9,9,1.0,0.107153,,,,,,,,,,,,,"three people, a man, woman and child all brushing their teeth with man on the right wearing a purple shir",21565.0,17.0,Which description best matches the image?,0.4444444444444444,0.3333333333333333,0.46153846153846156,8,2,6,0.11202453333333333,-0.13526353333333332,-0.254190341703803,-0.14075847588727833,-0.8817048300248024,-0.5376256972869797,-0.3138058354192423
Encode-Decode_Experiment-15-1,2347400,decoding,,0.0,0.0,0.0,3,0,False,,0.153412,0,13,13,13,1.0,0.153412,,,,,,,,,,,,,"two men sat on couch inside holding wine glasses and appearing to sniff them, red wine",17882.0,19.0,Which description best matches the image?,0.6,0.5,0.5833333333333334,12,4,7,0.09093911111111114,,,,0.003090602809300595,,-0.3676034877632845
Encode-Decode_Experiment-15-1,150472,decoding,,0.0,0.0,0.0,2,0,False,,0.03753,0,7,7,7,1.0,0.03753,,,,,,,,,,,,,"two women, one wearing glasses eating large pizza slice off paper plate",13936.0,20.0,Which description best matches the image?,0.5,0.25,0.7,8,1,7,0.04337769230769231,,,,-1.3241025464418539,,-0.48895238212306075
Encode-Decode_Experiment-15-1,2367132,decoding,,0.0,0.0,0.0,3,0,False,,0.059663,0,10,10,10,1.0,0.059663,,,,,,,,,,,,,two men standing up holding controllers in each hand,10052.0,21.0,Which description best matches the image?,0.2727272727272727,0.4,0.2222222222222222,6,2,4,0.11681566666666669,,,,-0.6605059718162767,,-0.3015816682821492
Encode-Decode_Experiment-15-1,2410309,decoding,,0.0,0.0,0.0,8,0,False,,0.097074,0,16,16,16,1.0,0.097074,,,,,,,,,,,,,"woman on laptop, diet coke bottle inbetween her and a baby who is also on a laptop to the left of the woman",23484.0,22.0,Which description best matches the image?,0.5882352941176471,0.2857142857142857,0.6666666666666666,10,2,8,0.2634229375,,,,0.6666871774348778,,0.07247425074460695
Encode-Decode_Experiment-15-1,2356991,decoding,,0.0,0.0,0.0,2,0,False,,0.023769,0,14,14,14,1.0,0.023769,,,,,,,,,,,,,"ball in the air, player diving and player on right of the screen is getting ready to catch the ball",16545.0,24.0,Which description best matches the image?,0.5,0.5714285714285714,0.4,8,4,4,-0.2498732,,,,0.22428946101782635,,-1.2371569657297696
Encode-Decode_Experiment-15-1,2385851,decoding,,0.0,0.0,0.0,4,0,False,,0.046405,0,11,11,11,1.0,0.046405,,,,,,,,,,,,,two men carrying red suitcases over thei heads walking through a shielded underpass,16493.0,26.0,Which description best matches the image?,0.6875,0.5714285714285714,0.7777777777777778,11,4,7,0.29928055555555555,,,,-0.4393071136077509,,0.16396189797820954
Encode-Decode_Experiment-15-1,2347025,decoding,,1.0,1.0,0.0,2,2,False,0.227367,,7,0,8,7,0.875,0.223854,,,,,,,,,,,,,baby holding pink umbrella with little people on it and she is strapped to her mothers back,18332.0,27.0,Which description best matches the image?,0.6,0.5,0.5833333333333334,9,2,7,0.8824851428571429,,,,-1.102903688233328,0.6114098951032623,1.6519585481014818
Encode-Decode_Experiment-16-1,2411268,decoding,,1.0,1.0,0.0,2,2,False,0.141029,,9,0,9,9,1.0,0.141029,,,,,,,,,,,,,,13264.0,1.0,Which description best matches the image?,0.0,0.0,0.0,0,0,0,0.11825819999999998,,,,-0.8817048300248024,-0.16648281314640823,-0.2979011677949658
Encode-Decode_Experiment-16-1,150472,decoding,0.853957,0.4,0.2703,0.151881,10,4,False,0.155623,0.084243,6,5,11,11,1.0,0.123178,,,,,,,,,,,,,"two girls eating pizza outside,dim lighting on a street, girl on right had glasses, both mouth open and leaning to pizza on white paper plate",44120.0,2.0,Which description best matches the image?,1.0,0.75,1.0,16,3,10,0.04337769230769231,0.8105793076923077,0.6019836981770815,0.8435082621667515,-0.4393071136077509,-0.03499301509461519,-0.48895238212306075
Encode-Decode_Experiment-16-1,2408717,decoding,,0.0,0.0,0.0,7,0,False,,0.076775,0,13,13,13,1.0,0.076775,,,,,,,,,,,,,"four girls total, two farthest right were holding surboard under their righ arms , other two far left were seperate, all on beach, walkign towards water, sunny",58748.0,3.0,Which description best matches the image?,0.8125,0.7142857142857143,0.5555555555555556,13,5,5,0.3825427,,,,0.003090602809300595,,0.37639814198763005
Encode-Decode_Experiment-16-1,2410309,decoding,-0.290182,0.1,0.1357,0.123026,10,1,False,0.36964,0.24487,3,12,15,15,1.0,0.269824,,,,,,,,,,,,,"mum and baby on counch, mum facing screen and looking at laptop, had annoyed look on her face, baby to right of her facing sideways looking at laption, touching keyboard",56920.0,4.0,Which description best matches the image?,0.7647058823529411,0.8571428571428571,0.5833333333333334,13,6,7,0.2634229375,-0.5536049375000001,-0.5147360654963453,-0.5760945712850815,0.44548831922635207,1.8932687438234708,0.07247425074460695
Encode-Decode_Experiment-16-1,2356125,decoding,,0.0,0.0,0.0,5,0,False,,0.085963,0,13,13,13,1.0,0.085963,,,,,,,,,,,,,"four airport staff next to conveyor belt, two women helping suitcase off ramp to belt, to the left of them one man and to the left of him a women, four suitcases on belt",51005.0,5.0,Which description best matches the image?,0.75,0.42857142857142855,0.8461538461538461,15,3,11,-0.14282366666666665,,,,0.003090602809300595,,-0.9640292323999086
Encode-Decode_Experiment-16-1,2367132,decoding,1.240296,0.571429,0.320571,0.202256,7,4,False,0.119372,0.072278,7,5,13,12,0.9231,0.099837,,,,,,,,,,,,,"two men standing up holding wii remotes in both hands playing video game, both hans were up out in front of them. girl with pink shirt on couch in the back table in front of couch had a beer on it",59522.0,7.0,Which description best matches the image?,0.7727272727272727,1.0,0.6666666666666666,17,5,12,0.11681566666666669,1.1234803333333334,0.9790641025491272,1.1691205716150013,0.003090602809300595,-0.3616092045680661,-0.3015816682821492
Encode-Decode_Experiment-16-1,2348899,decoding,0.796965,0.6,0.4006,0.250199,5,3,False,0.067416,0.137702,10,2,12,12,1.0,0.07913,,,,,,,,,,,,,"three men one women in pub, manfar left was a blonde girl reaching right for mans tie. man had pink and white tie. two men to left of him looking and pointing at him",56407.0,8.0,Which description best matches the image?,0.7391304347826086,0.8333333333333334,0.7058823529411765,17,5,12,0.6536947333333334,0.14327026666666665,0.5463575087269571,0.1490904745646937,-0.21810825539922515,-0.8297251390328426,1.0682193760093532
Encode-Decode_Experiment-16-1,2349475,decoding,2.547559,0.294118,0.094765,0.078253,17,5,False,0.115203,0.221688,12,9,21,21,1.0,0.16084,,,,,,,,,,,,,"man on bike cycling to power blender on left side. women on right holding lid shut, another women in background watching",37137.0,9.0,Which description best matches the image?,0.7,0.7,0.5384615384615384,14,7,7,0.8072902307692308,1.7402687692307692,2.254998607376788,1.8109654062303522,1.7726814684775065,-0.39917128268769914,1.4601051578343942
Encode-Decode_Experiment-16-1,2360001,decoding,0.642639,0.307692,0.229846,0.121135,13,4,False,0.264922,0.152974,7,10,17,17,1.0,0.19907,,,,,,,,,,,,,"four men standing on scaffoling holding up clock, black and white photo,",38968.0,11.0,Which description best matches the image?,0.6,0.5714285714285714,0.7272727272727273,12,4,8,0.3624469,0.28019209999999994,0.3957299239241793,0.29157461719164424,0.8878860356434036,0.94977493318981,0.32512542614720397
Encode-Decode_Experiment-16-1,2345035,decoding,2.539815,0.533333,0.213133,0.126072,15,8,False,0.267468,0.112279,17,4,21,21,1.0,0.237908,,,,,,,,,,,,,"football pitch, white goal was in far left of photo, two young girls in right of photo running for the ball. taller girl was to the left of a shorter girl who was to the left of the ball. men in the background and another football pitch behind",78227.0,12.0,Which description best matches the image?,1.0,1.0,1.0,21,5,15,-0.09812730000000003,2.6379422999999997,2.247440191965822,2.745106005116295,1.7726814684775065,0.9727140195156879,-0.849990273652335
Encode-Decode_Experiment-16-1,2344622,decoding,,1.0,1.0,0.0,3,3,False,0.160025,,9,0,14,9,0.6429,0.207399,,,,,,,,,,,,,"cat on light blue blanket in left side of photo, behind the cat was cds. to the left of cat was white middle aged mans right hand on left edge of old faishioned keyboard",78515.0,13.0,Which description best matches the image?,0.8571428571428571,0.8,0.8,12,4,8,0.18002336363636365,,,,0.22428946101782635,0.0046683588278180355,-0.1403126326799322
Encode-Decode_Experiment-16-1,2385851,decoding,,0.0,0.0,0.0,9,0,False,,0.215766,0,13,13,13,1.0,0.215766,,,,,,,,,,,,,two man on covered walkway walking in shade. far left was sunny where there was no sun. men holding red suitcases walking away from camera. suitcases large and on their backs.,56177.0,14.0,Which description best matches the image?,0.875,0.7142857142857143,0.8888888888888888,14,5,8,0.29928055555555555,,,,0.003090602809300595,,0.16396189797820954
Encode-Decode_Experiment-16-1,2374670,decoding,2.415888,0.875,0.38325,0.203548,8,7,False,0.159454,0.317273,16,1,17,17,1.0,0.168738,,,,,,,,,,,,,"red truck on dirt road. guy in front driving was visble, guy on ledge at back of truck bending over. multiple outlets of water spraying along the rear end of car. blue tube at back of car",76411.0,15.0,Which description best matches the image?,1.0,1.0,1.0,19,7,11,0.3517390666666666,2.064148933333333,2.126483096584267,2.1480028703992993,0.8878860356434036,-0.00047626736702725326,0.29780530474041017
Encode-Decode_Experiment-16-1,2385550,decoding,-0.393193,0.272727,0.337455,0.16462,11,3,False,0.263669,0.379693,6,9,15,15,1.0,0.333283,,,,,,,,,,,,,"two kids with peeled tangerines in their mouth, boy on left and girl with fringe on right, outside, sunny",60678.0,16.0,Which description best matches the image?,0.6111111111111112,0.5,0.6428571428571429,11,2,9,0.5181881333333334,-0.9113811333333334,-0.6152784118159476,-0.948405058769871,0.44548831922635207,0.938485587091489,0.722485869689511
Encode-Decode_Experiment-16-1,2386442,decoding,0.937838,0.333333,0.191889,0.15082,9,3,False,0.071434,0.07566,6,6,13,12,0.9231,0.071538,,,,,,,,,,,,,"mum , toddler and dad all brushing their teeth, close up photo, mum far left then baby to the left of her and dad on far right. dad in purple shirt, baby in pink check top and mum in brown and yellow stripy top",72299.0,17.0,Which description best matches the image?,0.9444444444444444,0.6666666666666666,1.0,17,4,13,0.11202453333333333,0.8258134666666667,0.683854494030287,0.8593612932521582,0.003090602809300595,-0.7935235487510759,-0.3138058354192423
Encode-Decode_Experiment-16-1,2371471,decoding,1.633731,1.0,0.671857,0.200855,7,7,False,0.1529,,17,0,17,17,1.0,0.1529,,,,,,,,,,,,,"two bikers mid air. behind them is a metal wall, below them is a dirt ramo, biker on left in on bike and biker on right has one leg with air, botj have helmets on",64297.0,18.0,Which description best matches the image?,0.8,1.0,0.6666666666666666,16,5,10,1.3568767142857143,0.2768542857142857,1.3630704516210972,0.28810120761794844,0.8878860356434036,-0.05952684544236306,2.862328089943575
Encode-Decode_Experiment-16-1,2397102,decoding,-1.292156,0.0,0.33825,0.261772,4,0,False,,0.055792,0,14,14,14,1.0,0.055792,,,,,,,,,,,,,"man and women cuting cak. women in red,",29687.0,19.0,Which description best matches the image?,0.3333333333333333,0.2,0.3157894736842105,7,1,6,-0.080163125,-1.211992875,-1.4926978065845509,-1.261228844664519,0.22428946101782635,,-0.8041562167806162
Encode-Decode_Experiment-16-1,2347400,decoding,-0.314094,0.428571,0.491429,0.200122,7,3,False,0.044749,0.021446,7,7,14,14,1.0,0.033098,,,,,,,,,,,,,"two men on couches smelling wine , window behind them",46588.0,20.0,Which description best matches the image?,0.45,0.375,0.5,9,3,6,0.09093911111111114,-0.4050331111111111,-0.5380750155618171,-0.42148716656237967,0.22428946101782635,-1.0339514822177123,-0.3676034877632845
Encode-Decode_Experiment-16-1,2347025,decoding,1.316784,1.0,0.7055,0.223651,6,6,False,0.078444,,12,0,12,12,1.0,0.078444,,,,,,,,,,,,,"eldery east asian women with hoops earring, lots of jewellery had small east asian child on her back , child holding a pink umbrella",46054.0,21.0,Which description best matches the image?,0.9333333333333333,0.5,1.0,14,2,12,0.8824851428571429,0.4342988571428571,1.053719071293181,0.45194180356333086,-0.21810825539922515,-0.7303644776024485,1.6519585481014818
Encode-Decode_Experiment-16-1,2394020,decoding,-0.023248,0.333333,0.340667,0.315439,3,1,False,0.202298,0.178846,2,2,4,4,1.0,0.190572,,,,,,,,,,,,,"two men with coyboy hats riding by beach, riding on sand with few grassy patches, behind them was sea and then sunset",35341.0,22.0,Which description best matches the image?,0.5,0.2857142857142857,0.5833333333333334,10,2,7,0.8102137692307692,-0.8334617692307692,-0.25419912601923417,-0.8673203002773172,-1.987699121067431,0.3855418844577645,1.4675643163046723
Encode-Decode_Experiment-16-1,2387122,decoding,1.057662,0.5,0.287667,0.200757,6,3,False,0.195314,0.14451,10,1,15,11,0.7333,0.16197,,,,,,,,,,,,,"blonde man crouching with camera behind glass pool, polar bear in behind the glass in water, one paw presses on glass, its head is turned up, behing water are rocks at back of picture",65233.0,23.0,Which description best matches the image?,1.0,1.0,1.0,17,5,12,-0.1310135,1.1886755,0.8008069176102933,1.23696422517832,0.44548831922635207,0.32261706949314045,-0.9338966017244406
Encode-Decode_Experiment-16-1,2412687,decoding,1.833169,0.818182,0.519273,0.163056,11,9,False,0.052425,0.069346,12,2,15,14,0.9333,0.058453,,,,,,,,,,,,,"dog left of photo biting on red frizbee held by man on right who had blakc and white adidas shoes on and shorts, dark lighting",50434.0,24.0,Which description best matches the image?,0.8666666666666667,0.75,1.0,13,3,9,-0.12495844444444446,1.9581274444444445,1.557728929504904,2.0376743670729534,0.44548831922635207,-0.9647918488173037,-0.9184476450818588
Encode-Decode_Experiment-16-1,2362704,decoding,-0.844904,0.0,0.071545,0.084679,11,0,False,,0.248676,0,12,14,12,0.8571,0.21425,,,,,,,,,,,,,"two brown bears eating pumpkins sitting down, one to the left is looking at camera, one on the right is lookign at pumpkin",32131.0,25.0,Which description best matches the image?,0.8888888888888888,1.0,0.42857142857142855,8,5,3,-0.44080836363636366,-0.4040956363636363,-1.0561641793395502,-0.4205116078631094,0.22428946101782635,,-1.7243117139394717
Encode-Decode_Experiment-16-1,2369373,decoding,0.512798,0.307692,0.240615,0.130806,13,4,False,0.093803,0.158457,8,8,17,16,0.9412,0.120216,,,,,,,,,,,,,,24431.0,26.0,Which description best matches the image?,0.0,0.0,0.0,0,0,0,0.4819225714285715,0.030875428571428498,0.26900055726932237,0.032129711245756816,0.8878860356434036,-0.5919821418290152,0.6299573885971317
Encode-Decode_Experiment-16-1,2370664,decoding,0.568007,0.5,0.3505,0.263201,4,2,False,0.130431,0.059633,5,6,11,11,1.0,0.091814,,,,,,,,,,,,,two men and a women holding a donut up to their mouths,16694.0,28.0,Which description best matches the image?,0.45,0.14285714285714285,0.5714285714285714,9,1,8,-0.33266924999999997,0.9006762500000001,0.32288647622903466,0.9372653005111697,-0.4393071136077509,-0.2619692376875142,-1.4484040096075803
Encode-Decode_Experiment-16-1,2379478,decoding,-1.3402,0.25,0.507125,0.191856,8,2,False,0.410153,0.425047,6,9,15,15,1.0,0.419089,,,,,,,,,,,,,"two babies lying in bed, one with nappy, drinking milk from bottle",38132.0,29.0,Which description best matches the image?,0.6875,0.8,0.7,11,4,7,0.01436823529411764,-1.3545682352941177,-1.5395904344260334,-1.4095961829967494,0.44548831922635207,2.2582849277670283,-0.5629675318629104
Encode-Decode_Experiment-16-1,2356991,decoding,,0.0,0.0,0.0,7,0,False,,0.035152,0,19,22,19,0.8636,0.034058,,,,,,,,,,,,,"man to the left falling head first with red helmet on. ball mid air. man on right stood trying to catch it, in baseball field",53792.0,30.0,Which description best matches the image?,0.875,0.7142857142857143,0.7,14,5,7,-0.2498732,,,,1.9938803266860323,,-1.2371569657297696
Encode-Decode_Experiment-17-1,2394020,decoding,1.3108,1.0,0.65925,0.259956,4,4,False,0.157368,,9,0,9,9,1.0,0.157368,,,,,,,,,,,,,"Two men were ridign a horse along a beach wearing cowboy hats, the horses were brown and white",30171.0,1.0,Which description best matches the image?,0.4,0.14285714285714285,0.5,8,1,6,0.8102137692307692,0.5005862307692308,1.0478784775665255,0.5209220338758537,-0.8817048300248024,-0.01927082120669016,1.4675643163046723
Encode-Decode_Experiment-17-1,2385550,decoding,-0.37788,0.4,0.501,0.267281,5,2,False,0.238673,0.347052,3,5,8,8,1.0,0.30641,,,,,,,,,,,,,Two kids had teangerines in their mouths. One way a blonde young boy and one was a rbown haired young girl with a fringe.,30181.0,2.0,Which description best matches the image?,0.5555555555555556,0.0,0.7142857142857143,10,0,10,0.5181881333333334,-0.8960681333333333,-0.600332387127399,-0.9324699838228769,-1.102903688233328,0.7132752957318472,0.722485869689511
Encode-Decode_Experiment-17-1,2349475,decoding,0.921326,0.333333,0.174667,0.172216,6,2,False,0.088422,0.060155,3,5,8,8,1.0,0.070756,,,,,,,,,,,,,One woman was powerign a blender by using a bicyclre while another was holding down the lid of the blender. The woman in the background was hvaing a cigarate and a beer,37886.0,3.0,Which description best matches the image?,0.5,0.4,0.46153846153846156,10,4,6,0.8072902307692308,0.11403576923076919,0.667738203319302,0.11866835560180394,-1.102903688233328,-0.6404641620645022,1.4601051578343942
Encode-Decode_Experiment-17-1,2409918,decoding,-0.028865,0.666667,0.675333,0.300245,3,2,False,0.08667,0.131117,6,2,8,8,1.0,0.097782,,,,,,,,,,,,,Two men were riding on elephants in a stream or river. One of the elephants was using their trunk to eat some food.,22347.0,4.0,Which description best matches the image?,0.5,0.3333333333333333,0.5,8,2,5,-0.14996574999999998,0.12110074999999998,-0.2596815148833089,0.12602034398140063,-1.102903688233328,-0.6562494249250436,-0.9822516474945375
Encode-Decode_Experiment-17-1,2408717,decoding,0.325875,0.142857,0.101714,0.126253,7,1,False,0.079533,0.166454,2,7,10,9,0.9,0.173022,,,,,,,,,,,,,4 people in total were walking down a beach towards the water with their surfboards. Two of the surfboards were green while two of them were white,30183.0,5.0,Which description best matches the image?,0.625,0.2857142857142857,0.6666666666666666,10,2,6,0.3825427,-0.05666769999999999,0.08655715801002963,-0.05896976729404912,-0.6605059718162767,-0.7205527474339956,0.37639814198763005
Encode-Decode_Experiment-17-1,2410309,decoding,-0.552201,0.285714,0.406,0.21783,7,2,False,0.090971,0.171189,4,7,11,11,1.0,0.142019,,,,,,,,,,,,,A mother and her child were both on a laptop each while sitting on a sofa. The kid had their hands on the keyboard and a bottle of coke by their side.,36226.0,6.0,Which description best matches the image?,0.6470588235294118,0.2857142857142857,0.75,11,2,9,0.2634229375,-0.8156239375000001,-0.7704757927130101,-0.848757824895506,-0.4393071136077509,-0.6174980461789314,0.07247425074460695
Encode-Decode_Experiment-17-1,2367132,decoding,-0.664706,0.333333,0.497833,0.247478,6,2,False,0.048522,0.052139,3,5,8,8,1.0,0.050783,,,,,,,,,,,,,"Two men were playign the wii, with controllers in both hands. There was a girl in the baclground on the sofa.",30792.0,7.0,Which description best matches the image?,0.5454545454545454,0.4,0.5555555555555556,12,2,10,0.11681566666666669,-0.7815216666666667,-0.8802846157774095,-0.8132701842247128,-1.102903688233328,-0.9999573059775166,-0.3015816682821492
Encode-Decode_Experiment-17-1,2360001,decoding,-0.300392,0.142857,0.195857,0.176436,7,1,False,0.127645,0.289444,2,8,10,10,1.0,0.257084,,,,,,,,,,,,,4 men were standing on scaffolding while trying to raise a big clock up.,21106.0,8.0,Which description best matches the image?,0.45,0.42857142857142855,0.5454545454545454,9,3,6,0.3624469,-0.6628389,-0.5247013833354415,-0.6897660516739429,-0.6605059718162767,-0.2870706887888087,0.32512542614720397
Encode-Decode_Experiment-17-1,2350974,decoding,-0.621856,0.5,0.6605,0.258098,4,2,False,0.158233,0.081848,10,2,14,12,0.8571,0.156343,,,,,,,,,,,,,A kid was stood in between a blue motorcycle and a red car while sipping his drink. He was lent against the car and had a red hat on.,29839.0,9.0,Which description best matches the image?,0.8333333333333334,1.0,0.6,10,4,6,0.1694393636363636,-0.7912953636363635,-0.8384615139747383,-0.8234409276271374,0.22428946101782635,-0.011477298161959349,-0.16731680392243417
Encode-Decode_Experiment-17-1,2362704,decoding,0.193319,0.25,0.222833,0.140528,12,3,False,0.199083,0.238161,5,10,16,15,0.9375,0.215437,,,,,,,,,,,,,2 black bears eating pumpkin,7590.0,11.0,Which description best matches the image?,0.5555555555555556,0.2,0.5714285714285714,5,1,4,-0.44080836363636366,0.6341273636363637,-0.042822143799885776,0.6598881385414483,0.6666871774348778,0.3565752063204126,-1.7243117139394717
Encode-Decode_Experiment-17-1,150472,decoding,,0.0,0.0,0.0,2,0,False,,0.197314,0,7,7,7,1.0,0.197314,,,,,,,,,,,,,2 girls taking a photo of them eating a slice of pizza on a paper plate outside,19608.0,12.0,Which description best matches the image?,0.5625,0.5,0.6,9,2,6,0.04337769230769231,,,,-1.3241025464418539,,-0.48895238212306075
Encode-Decode_Experiment-17-1,2386442,decoding,1.356742,0.833333,0.5055,0.241633,6,5,False,0.114075,,7,0,7,7,1.0,0.114075,,,,,,,,,,,,,,7172.0,16.0,Which description best matches the image?,0.0,0.0,0.0,0,0,0,0.11202453333333333,1.2447174666666665,1.0927194797373148,1.2952828393630174,-1.3241025464418539,-0.40933439713215736,-0.3138058354192423
Encode-Decode_Experiment-17-1,2356991,decoding,0.440218,0.4,0.299,0.229432,5,2,False,0.099134,0.206782,4,3,8,7,0.875,0.146349,,,,,,,,,,,,,One man slidign head first with his arm stretched out to try and get to base safely befor ethe catcher catches the ball,24270.0,17.0,Which description best matches the image?,0.625,0.7142857142857143,0.5,10,5,5,-0.2498732,0.6900912,0.1981599334924759,0.7181254484595476,-1.102903688233328,-0.5439506142550733,-1.2371569657297696
Encode-Decode_Experiment-17-1,2374670,decoding,1.250858,1.0,0.6645,0.268216,4,4,False,0.207629,,6,0,6,6,1.0,0.207629,,,,,,,,,,,,,A man was standing on the back of a	 red truck that was spraying some fluid oto a mud track.,19605.0,19.0,Which description best matches the image?,0.47368421052631576,0.42857142857142855,0.45454545454545453,9,3,5,0.3517390666666666,0.8991189333333334,0.9893729847250854,0.9356447194493571,-1.5453014046503797,0.43357341203170635,0.29780530474041017
Encode-Decode_Experiment-17-1,2345035,decoding,,1.0,1.0,0.0,2,2,False,0.095892,,5,0,5,5,1.0,0.095892,,,,,,,,,,,,,"2 girls chasing after a ball, one was wearing blue and one was wearing black and white",27128.0,24.0,Which description best matches the image?,0.42857142857142855,0.4,0.4666666666666667,9,2,7,-0.09812730000000003,,,,-1.7665002628589053,-0.5731605584296596,-0.849990273652335
Encode-Decode_Experiment-17-1,2369373,decoding,,0.0,0.0,0.0,2,0,False,,0.37268,0,4,4,4,1.0,0.37268,,,,,,,,,,,,,A pizza chef putting a pizza into a oven that looked like an open mouth,23467.0,29.0,Which description best matches the image?,0.3333333333333333,0.25,0.3333333333333333,5,1,4,0.4819225714285715,,,,-1.987699121067431,,0.6299573885971317
Encode-Decode_Experiment-17-1,2379478,decoding,,0.0,0.0,0.0,6,0,False,,0.424713,0,16,17,16,0.9412,0.403134,,,,,,,,,,,,,2 babies lying on their backs on their bed while drinking some milk fromm bottles,18017.0,30.0,Which description best matches the image?,0.5625,0.8,0.5,9,4,5,0.01436823529411764,,,,0.8878860356434036,,-0.5629675318629104
Encode-Decode_Experiment-18-1,2348899,decoding,,1.0,1.0,0.0,6,6,False,0.164367,,16,0,16,16,1.0,0.164367,,,,,,,,,,,,,"three people, two men, one woman, the woman is pointing at the man's tie which is pink and white striped. the men are sat down at what appears to be a restaurant or bar, the table is brown, one man is holding beer, they are all laughing, the woman has blonde hair",58762.0,1.0,Which description best matches the image?,0.6086956521739131,0.3333333333333333,0.7058823529411765,14,2,12,0.6536947333333334,,,,0.6666871774348778,0.04378914155639732,1.0682193760093532
Encode-Decode_Experiment-18-1,2379478,decoding,2.293972,0.833333,0.333667,0.217817,6,5,False,0.608656,0.558563,9,1,10,10,1.0,0.603647,,,,,,,,,,,,,"two babies are lying down on a bed, they are holding and drinking from milk bottles, they are wearing bibs and nappies",22156.0,2.0,Which description best matches the image?,0.6875,1.0,0.6,11,5,6,0.01436823529411764,2.2796037647058824,2.0074888076840467,2.372210333705871,-0.6605059718162767,4.046767823660891,-0.5629675318629104
Encode-Decode_Experiment-18-1,2385851,decoding,-0.604881,0.0,0.0485,0.080181,8,0,False,,0.361098,0,16,16,16,1.0,0.361098,,,,,,,,,,,,,"two men are carrying red suitcases, the leftmost one has his suitcase tied to him, the right one is carrying ti above is head, they are walking on an enclosed sidewalk/passage area",33919.0,3.0,Which description best matches the image?,1.0,1.0,1.0,16,7,9,0.29928055555555555,-0.9041615555555556,-0.821893319036574,-0.9408921930365371,0.6666871774348778,,0.16396189797820954
Encode-Decode_Experiment-18-1,2356991,decoding,,0.0,0.0,0.0,5,0,False,,0.063727,0,12,15,12,0.8,0.054936,,,,,,,,,,,,,"one individual is trying to tackle another to the right of him, the rightmost man is trying to catch the baseball",20923.0,5.0,Which description best matches the image?,0.25,0.2857142857142857,0.2,4,2,2,-0.2498732,,,,0.44548831922635207,,-1.2371569657297696
Encode-Decode_Experiment-18-1,2344622,decoding,1.43743,1.0,0.6564,0.239038,5,5,False,0.136125,,13,0,13,13,1.0,0.136125,,,,,,,,,,,,,"a cat is lying on a blue blanket, it is brown/grey, a man has his hand placed on his keyboard to the right of the cat",25559.0,6.0,Which description best matches the image?,0.7142857142857143,0.6,0.7,10,3,7,0.18002336363636365,1.2574066363636363,1.171473795682564,1.3084874935872934,0.003090602809300595,-0.2106671333907546,-0.1403126326799322
Encode-Decode_Experiment-18-1,150472,decoding,0.295667,0.4,0.3312,0.232694,5,2,False,0.071536,0.121474,5,3,8,8,1.0,0.090263,,,,,,,,,,,,,"two women are eating one half-eaten pizza slice, they are both going in for a bite, they appear to be near a cafe/outside, the woman on the right is wearing glasses, they both have brown hair",27137.0,7.0,Which description best matches the image?,0.625,0.75,0.6,10,3,6,0.04337769230769231,0.25228930769230773,0.05707309128295635,0.2625383025143449,-1.102903688233328,-0.7926045437215238,-0.48895238212306075
Encode-Decode_Experiment-18-1,2394020,decoding,0.787265,0.833333,0.667833,0.210221,6,5,False,0.202672,0.239253,10,1,11,11,1.0,0.205998,,,,,,,,,,,,,"two men are riding horses on a beach, they are wearing cowboy hats and checkered shirts, they are near the water",18028.0,8.0,Which description best matches the image?,0.45,0.14285714285714285,0.5833333333333334,9,1,7,0.8102137692307692,-0.02294876923076916,0.5368899687622917,-0.023881039484985146,-0.4393071136077509,0.38891156956612194,1.4675643163046723
Encode-Decode_Experiment-18-1,2356125,decoding,-1.09415,0.0,0.331667,0.303127,3,0,False,,0.040144,0,26,26,26,1.0,0.040144,,,,,,,,,,,,,,13597.0,9.0,Which description best matches the image?,0.0,0.0,0.0,0,0,0,-0.14282366666666665,-0.9513263333333333,-1.2994370108893418,-0.9899729916225234,2.878675759520135,,-0.9640292323999086
Encode-Decode_Experiment-18-1,2367132,decoding,-0.328323,0.333333,0.400667,0.205082,9,3,False,0.069385,0.036996,7,10,17,17,1.0,0.050333,,,,,,,,,,,,,"two men have wii controllers in both hands, they are in a living room, there is a picture on the wall of three camels, there is a girl on the sofa behind them to their left, they have brown/shaved hair and are wearing t-shirts and jeans",40254.0,10.0,Which description best matches the image?,0.7727272727272727,0.6,0.7222222222222222,17,3,13,0.11681566666666669,-0.4451386666666667,-0.5519630182584382,-0.46322196925085424,0.8878860356434036,-0.8119847380211953,-0.3015816682821492
Encode-Decode_Experiment-18-1,2408717,decoding,1.514416,0.625,0.32875,0.19562,8,5,False,0.071526,0.03938,20,2,22,22,1.0,0.068603,,,,,,,,,,,,,"four women are walking on a beach carrying surfboards, the two women on the right have green surfboards, while the two on the left have white/multicoloured surfboards. they are wearing swimming costumes and are walking toward the water",38438.0,11.0,Which description best matches the image?,0.75,0.5714285714285714,0.6666666666666666,12,4,6,0.3825427,1.1318733,1.2466148298804738,1.1778544939594768,1.9938803266860323,-0.7926946422538328,0.37639814198763005
Encode-Decode_Experiment-18-1,2371471,decoding,1.201969,1.0,0.66475,0.278917,4,4,False,0.086639,,11,0,11,11,1.0,0.086639,,,,,,,,,,,,,"two men are on motorbikes doing tricks, the one on the left is mid-air sitting on his motorbike, while the one on the right is mid-handstand attempt, they are both heading towards a sandy ramp",33069.0,12.0,Which description best matches the image?,0.5,0.6,0.4,10,3,6,1.3568767142857143,-0.15490771428571426,0.9416556072681244,-0.1612006815784233,-0.4393071136077509,-0.6565287303752017,2.862328089943575
Encode-Decode_Experiment-18-1,2362704,decoding,-0.67707,0.0,0.067,0.098956,8,0,False,,0.137502,0,16,18,16,0.8889,0.126046,,,,,,,,,,,,,"two bears are eating pumpkins, the pumpkins are being ravaged, the bears are brown and we can see one clearly, the bear at the back is slightly obscured by the former bear",29027.0,13.0,Which description best matches the image?,0.5555555555555556,0.2,0.5714285714285714,5,1,4,-0.44080836363636366,-0.23626163636363628,-0.8923523131096901,-0.24585952344765863,1.1090848938519293,,-1.7243117139394717
Encode-Decode_Experiment-18-1,2349475,decoding,,0.0,0.0,0.0,10,0,False,,0.044024,0,17,17,17,1.0,0.044024,,,,,,,,,,,,,"three individuals are surrounding a blender, the man is using some kind of lever/pump to turn the blender, the woman on the right is holding the lid, the man at the back is watching, they are outside, the blender appears to hold some kind of greyish substance",39979.0,14.0,Which description best matches the image?,0.7,0.5,0.6153846153846154,14,5,8,0.8072902307692308,,,,0.8878860356434036,,1.4601051578343942
Encode-Decode_Experiment-18-1,2369373,decoding,1.879908,0.714286,0.336,0.201226,7,5,False,0.166763,0.316365,13,2,15,15,1.0,0.18671,,,,,,,,,,,,,"a chef is wearing a white hat and uniform, he is holding a pizza thingy and putting a pizza into a firey oven, the oven is a stone mouth that is open",29526.0,15.0,Which description best matches the image?,0.8,0.25,0.9166666666666666,12,1,11,0.4819225714285715,1.3979854285714284,1.6033478316088723,1.4547771552988502,0.44548831922635207,0.06537674989763982,0.6299573885971317
Encode-Decode_Experiment-18-1,2411268,decoding,0.574801,0.444444,0.336222,0.188278,9,4,False,0.094906,0.107676,11,5,19,16,0.8421,0.083814,,,,,,,,,,,,,,12737.0,16.0,Which description best matches the image?,0.0,0.0,0.0,0,0,0,0.11825819999999998,0.4565428,0.329517658344492,0.4750893838248881,1.3302837520604551,-0.5820442737153295,-0.2979011677949658
Encode-Decode_Experiment-18-1,2386442,decoding,-0.17557,0.375,0.409375,0.195791,8,3,False,0.047223,0.057552,11,9,21,20,0.9524,0.050878,,,,,,,,,,,,,,2045.0,17.0,Which description best matches the image?,0.0,0.0,0.0,0,0,0,0.11202453333333333,-0.28759453333333335,-0.4028707365860129,-0.29927776680026397,1.7726814684775065,-1.011661105324459,-0.3138058354192423
Encode-Decode_Experiment-18-1,2350974,decoding,0.453086,0.6,0.4874,0.248518,5,3,False,0.249818,0.401204,8,3,12,11,0.9167,0.302425,,,,,,,,,,,,,"a boy is between a red car and a motorcycle, he is drinking what appears to be water in a coca cola bottle, he is outside on a grey road, he is wearing a helmet",21316.0,18.0,Which description best matches the image?,0.75,0.5,0.7,9,2,7,0.1694393636363636,0.2836466363636364,0.21071955248889998,0.29516949055817354,-0.21810825539922515,0.813690109990257,-0.16731680392243417
Encode-Decode_Experiment-18-1,2383555,decoding,-1.083117,0.071429,0.198429,0.117254,14,1,False,0.214003,0.160356,2,16,19,18,0.9474,0.159874,,,,,,,,,,,,,"four individuals are on a boat on a lake, the backmost individual is rowing the boat and is a woman, the front individual is an older women and is holding a baby, the woman towards the left is sitting down, there is greenery around the lake, the boat is brown and wooden",35872.0,19.0,Which description best matches the image?,0.5714285714285714,0.5,0.6363636363636364,12,5,7,0.11173925,-1.1948562500000002,-1.288668416205821,-1.2433960618189936,1.3302837520604551,0.4910022165254796,-0.3145337114572208
Encode-Decode_Experiment-18-1,2347400,decoding,,0.0,0.0,0.0,3,0,False,,0.110919,0,7,9,7,0.7778,0.109068,,,,,,,,,,,,,"two individuals are sitting on a coach smelling wine, they are in a living room, the sofa is greyish, they are wearing t shirts and jeans, the wine is red, there is a mario mushroom plushy behind them",25950.0,20.0,Which description best matches the image?,0.7,0.625,0.6666666666666666,14,5,8,0.09093911111111114,,,,-0.8817048300248024,,-0.3676034877632845
Encode-Decode_Experiment-18-1,2410309,decoding,1.531511,0.666667,0.337667,0.214821,6,4,False,0.139462,0.151155,6,6,12,12,1.0,0.145308,,,,,,,,,,,,,"an older lady on the left of the sofa, a baby is on the right, they both are looking at laptops, the woman has her laptop on her lap and is wearing a purple dress, the baby has its laptop in front of it, it is looking to the right of the image, its hand is on the keyboard",47243.0,21.0,Which description best matches the image?,0.8235294117647058,1.0,0.5833333333333334,14,7,7,0.2634229375,1.2680880625,1.2633001490243867,1.3196028417244146,-0.21810825539922515,-0.1806012531592325,0.07247425074460695
Encode-Decode_Experiment-18-1,2409918,decoding,1.307519,0.545455,0.331182,0.163877,11,6,False,0.054617,0.074166,13,7,20,20,1.0,0.061459,,,,,,,,,,,,,"there are two elephants wading through deep water, two men are on their backs, the elephant on the right is eating greenery, the man on the right has one leg up on the elephant, the man on the left has a stick",32114.0,22.0,Which description best matches the image?,0.75,0.6666666666666666,0.8,12,4,8,-0.14996574999999998,1.45748475,1.044676106574354,1.5166935757428899,1.5514826102689807,-0.9450422505351652,-0.9822516474945375
Encode-Decode_Experiment-18-1,2347025,decoding,,1.0,1.0,0.0,2,2,False,0.129792,,15,0,17,15,0.8824,0.12951,,,,,,,,,,,,,"a child is on an older lady's back (grandma?), the child is holding a pink umbrella with cartoon characters in rows on it, the child and the older lady are wearing rain jackets",41751.0,23.0,Which description best matches the image?,0.6,0.5,0.5833333333333334,9,2,7,0.8824851428571429,,,,0.8878860356434036,-0.2677265339020609,1.6519585481014818
Encode-Decode_Experiment-18-1,2345035,decoding,-0.626981,0.125,0.239375,0.182422,8,1,False,0.246263,0.372311,3,18,21,21,1.0,0.354304,,,,,,,,,,,,,"two girls are chasing a football, the one on the left is taller and is wearing a jersey with the number 20, while the one on the right is closer to the football and is wearing a jersey with the number 3, there are a number of individuals in the background watching, one appears to be a coach wearing blue",38098.0,24.0,Which description best matches the image?,0.7142857142857143,1.0,0.6666666666666666,15,5,10,-0.09812730000000003,-0.5288537,-0.8434636935952445,-0.5503378401028605,1.7726814684775065,0.7816600817543982,-0.849990273652335
Encode-Decode_Experiment-18-1,2385550,decoding,0.757391,0.285714,0.198786,0.114774,14,4,False,0.284425,0.342843,7,8,21,15,0.7143,0.239762,,,,,,,,,,,,,"there are two children, one boy on the left with blonde hair, one girl on the right with brown hair and a fringe, they have tangerines in their mouths covering their teeth",25215.0,25.0,Which description best matches the image?,0.7222222222222222,0.5,0.7857142857142857,13,2,11,0.5181881333333334,0.23920286666666668,0.5077318977412183,0.24892023822041115,1.7726814684775065,1.1254941007521038,0.722485869689511
Encode-Decode_Experiment-18-1,2387122,decoding,0.175713,0.2,0.167,0.187806,5,1,False,0.082016,0.15173,5,9,27,14,0.5185,0.106561,,,,,,,,,,,,,"there is a polar bear in an enclosure of water, it is biting/pressing its mouth against the bannister, a woman is taking a picture of the bear with a black professional looking camera, it is very cute :)",30464.0,26.0,Which description best matches the image?,0.6470588235294118,0.6,0.6666666666666666,11,3,8,-0.1310135,0.3067265,-0.060006216853277304,0.31918695002476116,3.099874617728661,-0.6981812818616643,-0.9338966017244406
Encode-Decode_Experiment-18-1,2397102,decoding,,0.0,0.0,0.0,2,0,False,,0.066494,0,15,15,15,1.0,0.066494,,,,,,,,,,,,,"one woman on the left is cutting a cake wearing a pink dress, with a man on the right who is holding a beer bottle, they appear to be at a party/wedding, the man has a wedding ring on his left ring finger, he is weargin a blue shirt",42367.0,27.0,Which description best matches the image?,0.7619047619047619,0.8,0.631578947368421,16,4,12,-0.080163125,,,,0.44548831922635207,,-0.8041562167806162
Encode-Decode_Experiment-18-1,2374670,decoding,-0.193424,0.625,0.66125,0.187412,8,5,False,0.151272,0.2339,17,1,18,18,1.0,0.155862,,,,,,,,,,,,,"a man is standing on the back of a red spray vehicle, there are eight spurts of water coming from the back, it is on a grey road in a residential-looking area",24601.0,28.0,Which description best matches the image?,0.42105263157894735,0.2857142857142857,0.45454545454545453,8,2,5,0.3517390666666666,-0.5451630666666666,-0.4202968663312846,-0.5673097580922379,1.1090848938519293,-0.07419488650227268,0.29780530474041017
Encode-Decode_Experiment-18-1,2412687,decoding,-1.179478,0.0,0.32175,0.27279,4,0,False,,0.050688,0,15,17,15,0.8824,0.047474,,,,,,,,,,,,,,5378.0,29.0,Which description best matches the image?,0.0,0.0,0.0,0,0,0,-0.12495844444444446,-1.0545195555555555,-1.382720129456864,-1.0973583328445518,0.8878860356434036,,-0.9184476450818588
Encode-Decode_Experiment-18-1,2360001,decoding,1.143904,0.272727,0.142182,0.114123,11,3,False,0.103597,0.195399,8,8,16,16,1.0,0.149498,,,,,,,,,,,,,"four workmen are lifting up a big clock, they are standing on scaffolding, it looks to be an urban, city area, they are men, and wearing building clothes",29332.0,30.0,Which description best matches the image?,0.5,0.5714285714285714,0.5454545454545454,10,4,6,0.3624469,0.7814571,0.8849821322115993,0.8132029946033185,0.6666871774348778,-0.503739639285555,0.32512542614720397
Encode-Decode_Experiment-19-1,2356125,decoding,-0.441702,0.571429,0.664857,0.211519,7,4,False,0.040086,0.140845,6,12,18,18,1.0,0.107259,,,,,,,,,,,,,"four staff, suitcases, conveyer belt",25558.0,2.0,Which description best matches the image?,0.25,0.0,0.38461538461538464,5,0,5,-0.14282366666666665,-0.29887833333333336,-0.6626248959547054,-0.31101995962249945,1.1090848938519293,-1.0759644278334113,-0.9640292323999086
