SubjectID,StimID,Phase,svg_z_all_dec,svg_obs_all,svg_null_mean_all,svg_null_std_all,svg_z_inter_dec,svg_obs_inter,svg_null_mean_inter,svg_null_std_inter,n_transitions_dec,n_relational_all,n_relational_inter,low_n_dec,lcs_enc_dec,lcs_len_enc_dec,tau_enc_dec,tau_p_enc_dec,n_shared_enc_dec,n_fixations_dec,n_aoi,aoi_prop_dec,mean_salience_dec,enc_q1_accuracy,enc_q1_rt_ms,enc_q1_trial_index,enc_q2_accuracy,enc_q2_rt_ms,enc_q2_trial_index,dec_rt_ms,dec_trial_index,writing_length,n_object_identity_correct,n_object_identity_incorrect,n_object_identity_inference,n_object_identity_repeat,n_object_attribute_correct,n_object_attribute_incorrect,n_object_attribute_inference,n_object_attribute_repeat,n_action_relation_correct,n_action_relation_incorrect,n_action_relation_inference,n_action_relation_repeat,n_spatial_relation_correct,n_spatial_relation_incorrect,n_spatial_relation_inference,n_spatial_relation_repeat,n_scene_gist_correct,n_scene_gist_incorrect,n_scene_gist_inference,n_scene_gist_repeat,empty_response,wrong_image,n_relational_correct,n_relational_incorrect,n_objects_correct,n_objects_incorrect,n_gist_correct,n_inference_total,n_repeat_total,n_relational_total,any_relational_correct,svg_z_inter_dec_z,n_fixations_dec_z,aoi_prop_dec_z,mean_salience_dec_z
Encode-Decode_Experiment-1-1,2362704,decoding,,0.0,0.0,0.0,,0.0,0.0,0.0,7,0,0,False,1.0,2.0,1.0,1.0,2.0,19,15,0.7895,0.088457,,,,,,,55163.0,1.0,51.0,3.0,0.0,0.0,3.0,2.0,0.0,0.0,0.0,1.0,0.0,0.0,0.0,0.0,0.0,0.0,0.0,0.0,0.0,0.0,0.0,0.0,0.0,1.0,0.0,5.0,0.0,0.0,0.0,3.0,1.0,1.0,,1.1270263074508413,-1.377574612180025,-0.5812281506774367
Encode-Decode_Experiment-1-1,2367132,decoding,0.285135,0.75,0.677,0.25602,0.692949,0.5,0.32,0.25976,4,3,2,False,0.666667,2.0,0.333333,1.0,3.0,10,10,1.0,0.060864,,,,,,,63967.0,2.0,92.0,5.0,0.0,0.0,1.0,0.0,0.0,1.0,0.0,0.0,0.0,0.0,0.0,2.0,0.0,0.0,0.0,0.0,0.0,0.0,0.0,0.0,0.0,2.0,0.0,5.0,0.0,0.0,1.0,1.0,2.0,1.0,0.5203947500336851,-0.732869521929125,0.558896443005932,-0.8824125784403858
Encode-Decode_Experiment-1-1,2412687,decoding,,0.0,0.0,0.0,,0.0,0.0,0.0,4,0,0,False,1.0,2.0,1.0,1.0,2.0,14,12,0.8571,0.065487,,,,,,,35594.0,3.0,59.0,3.0,0.0,0.0,0.0,0.0,0.0,0.0,0.0,2.0,0.0,0.0,0.0,0.0,0.0,0.0,0.0,1.0,0.0,0.0,0.0,0.0,0.0,2.0,0.0,3.0,0.0,1.0,0.0,0.0,2.0,1.0,,0.09375084668419331,-0.7556960215359838,-0.8319513886622495
Encode-Decode_Experiment-1-1,2371471,decoding,1.137792,0.8,0.4936,0.269294,0.246634,0.4,0.3408,0.240032,5,4,2,False,0.5,2.0,0.333333,1.0,3.0,16,16,1.0,0.102446,,,,,,,67237.0,4.0,84.0,0.0,0.0,0.0,0.0,0.0,0.0,0.0,0.0,0.0,0.0,0.0,0.0,0.0,0.0,0.0,0.0,0.0,0.0,0.0,0.0,1.0,1.0,0.0,0.0,0.0,0.0,0.0,0.0,0.0,0.0,0.0,0.0859019893343043,0.5070610309908524,0.558896443005932,-0.4285347516278264
Encode-Decode_Experiment-1-1,2408717,decoding,-0.418121,0.25,0.328125,0.186848,,0.0,0.0,0.0,8,2,0,False,0.666667,2.0,1.0,1.0,2.0,26,24,0.9231,0.048856,,,,,,,51079.0,6.0,83.0,2.0,0.0,0.0,0.0,2.0,0.0,0.0,0.0,0.0,0.0,0.0,0.0,1.0,0.0,0.0,0.0,1.0,0.0,0.0,0.0,0.0,0.0,1.0,0.0,4.0,0.0,1.0,0.0,0.0,1.0,1.0,,2.573611952524148,-0.14853645078884242,-1.0134828719415454
Encode-Decode_Experiment-1-1,2370664,decoding,,1.0,1.0,0.0,,0.0,0.0,0.0,4,4,0,False,0.666667,2.0,1.0,1.0,2.0,17,16,0.9412,0.159114,,,,,,,54622.0,7.0,97.0,3.0,0.0,0.0,3.0,3.0,0.0,0.0,0.0,2.0,0.0,0.0,0.0,1.0,0.0,0.0,0.0,1.0,0.0,0.0,0.0,0.0,0.0,3.0,0.0,6.0,0.0,1.0,0.0,3.0,3.0,1.0,,0.7137161231441821,0.017972461794843218,0.19001050088081017
Encode-Decode_Experiment-1-1,2356991,decoding,,0.0,0.0,0.0,,0.0,0.0,0.0,6,0,0,False,0.5,2.0,1.0,1.0,2.0,20,18,0.9,0.10691,,,,,,,79990.0,8.0,140.0,3.0,0.0,0.0,1.0,1.0,0.0,1.0,0.0,2.0,1.0,1.0,0.0,2.0,0.0,0.0,0.0,0.0,0.0,0.0,0.0,0.0,0.0,4.0,1.0,4.0,0.0,0.0,2.0,1.0,5.0,1.0,,1.3336813996041708,-0.3610423005503418,-0.37980908622233195
Encode-Decode_Experiment-1-1,2409918,decoding,-0.912559,0.181818,0.331909,0.164473,0.108231,0.181818,0.167727,0.130193,11,2,2,False,0.75,3.0,0.666667,0.333333,4.0,20,17,0.85,0.088457,,,,,,,58745.0,9.0,89.0,2.0,0.0,0.0,2.0,3.0,0.0,0.0,0.0,1.0,0.0,0.0,0.0,3.0,0.0,0.0,0.0,0.0,0.0,0.0,0.0,0.0,0.0,4.0,0.0,5.0,0.0,0.0,0.0,2.0,4.0,1.0,-0.048834915226547086,1.3336813996041708,-0.8210116723284792,-0.5812281506774367
Encode-Decode_Experiment-1-1,2374670,decoding,0.840992,0.5,0.332875,0.198724,1.124747,0.375,0.195625,0.15948,8,4,3,False,0.428571,3.0,1.0,0.333333,3.0,22,22,1.0,0.216077,,,,,,,38925.0,10.0,44.0,2.0,0.0,1.0,0.0,1.0,0.0,0.0,0.0,1.0,0.0,0.0,0.0,1.0,0.0,0.0,0.0,0.0,0.0,0.0,0.0,0.0,0.0,2.0,0.0,3.0,0.0,0.0,1.0,0.0,2.0,1.0,0.9407550450819607,1.7469915839108299,0.558896443005932,0.8117757514393167
Encode-Decode_Experiment-1-1,2394020,decoding,1.519606,0.777778,0.498,0.184112,1.114345,0.333333,0.169,0.147471,9,7,3,False,0.25,1.0,-1.0,0.333333,3.0,23,22,0.9565,0.29959,,,,,,,37777.0,11.0,68.0,4.0,0.0,0.0,1.0,2.0,0.0,0.0,0.0,2.0,0.0,0.0,0.0,1.0,0.0,0.0,0.0,0.0,0.0,0.0,0.0,0.0,0.0,3.0,0.0,6.0,0.0,0.0,0.0,1.0,3.0,1.0,0.930628579028176,1.9536466760641595,0.15872308955895295,1.723340826486147
Encode-Decode_Experiment-1-1,2387122,decoding,0.271113,0.545455,0.500818,0.164641,,0.0,0.0,0.0,11,6,0,False,0.6,3.0,0.666667,0.333333,4.0,20,17,0.85,0.150246,,,,,,,61612.0,12.0,111.0,4.0,0.0,0.0,2.0,0.0,1.0,2.0,0.0,1.0,0.0,0.0,0.0,2.0,0.0,0.0,1.0,0.0,0.0,0.0,0.0,0.0,0.0,3.0,0.0,4.0,1.0,0.0,2.0,3.0,3.0,1.0,,1.3336813996041708,-0.8210116723284792,0.09321408492742206
Encode-Decode_Experiment-1-1,2387122,decoding,0.271113,0.545455,0.500818,0.164641,,0.0,0.0,0.0,11,6,0,False,0.6,3.0,0.666667,0.333333,4.0,20,17,0.85,0.150246,,,,,,,61612.0,12.0,111.0,4.0,0.0,1.0,2.0,1.0,0.0,1.0,0.0,1.0,0.0,0.0,0.0,1.0,0.0,0.0,0.0,0.0,0.0,0.0,0.0,0.0,0.0,2.0,0.0,5.0,0.0,0.0,2.0,2.0,2.0,1.0,,1.3336813996041708,-0.8210116723284792,0.09321408492742206
Encode-Decode_Experiment-1-1,2369373,decoding,0.271149,0.714286,0.656429,0.213378,,0.0,0.0,0.0,7,5,0,False,0.666667,2.0,1.0,1.0,2.0,13,13,1.0,0.100731,,,,,,,47037.0,13.0,0.0,0.0,0.0,0.0,0.0,0.0,0.0,0.0,0.0,0.0,0.0,0.0,0.0,0.0,0.0,0.0,0.0,0.0,0.0,0.0,0.0,1.0,0.0,0.0,0.0,0.0,0.0,0.0,0.0,0.0,0.0,0.0,,-0.11290424546913626,0.558896443005932,-0.44725440130758054
Encode-Decode_Experiment-1-1,2385550,decoding,1.194956,0.888889,0.670444,0.182805,2.394971,0.777778,0.34,0.18279,9,8,7,False,0.333333,1.0,-1.0,1.0,2.0,18,18,1.0,0.236058,,,,,,,64294.0,14.0,134.0,3.0,0.0,0.0,3.0,1.0,0.0,0.0,0.0,1.0,0.0,0.0,0.0,2.0,0.0,0.0,1.0,0.0,0.0,0.0,0.0,0.0,0.0,3.0,0.0,4.0,0.0,0.0,0.0,4.0,3.0,1.0,2.177332647149133,0.9203712152975116,0.558896443005932,1.0298733142679866
Encode-Decode_Experiment-1-1,2356125,decoding,,0.0,0.0,0.0,,0.0,0.0,0.0,5,0,0,False,0.5,2.0,0.333333,1.0,3.0,18,18,1.0,0.071504,,,,,,,61707.0,15.0,122.0,4.0,0.0,0.0,4.0,3.0,0.0,0.0,1.0,2.0,0.0,0.0,1.0,2.0,0.0,0.0,0.0,0.0,0.0,0.0,0.0,0.0,0.0,4.0,0.0,7.0,0.0,0.0,0.0,6.0,4.0,1.0,,0.9203712152975116,0.558896443005932,-0.766274343692523
Encode-Decode_Experiment-1-1,2350974,decoding,-0.486995,0.125,0.203875,0.161963,-0.430392,0.125,0.1945,0.161481,8,1,1,False,0.4,2.0,-0.666667,0.333333,4.0,17,17,1.0,0.211749,,,,,,,29496.0,16.0,46.0,2.0,1.0,0.0,0.0,2.0,0.0,0.0,1.0,1.0,0.0,0.0,0.0,1.0,0.0,0.0,0.0,0.0,0.0,0.0,0.0,0.0,0.0,2.0,0.0,4.0,1.0,0.0,0.0,1.0,2.0,1.0,-0.5731905704166763,0.7137161231441821,0.558896443005932,0.7645345597110508
Encode-Decode_Experiment-1-1,2385851,decoding,0.152334,0.222222,0.199444,0.149525,0.40323,0.111111,0.072667,0.095341,9,2,1,False,0.333333,2.0,-0.2,0.816667,5.0,16,15,0.9375,0.152109,,,,,,,31718.0,17.0,42.0,2.0,0.0,0.0,1.0,3.0,0.0,0.0,0.0,1.0,0.0,0.0,0.0,0.0,0.0,0.0,0.0,0.0,0.0,0.0,0.0,0.0,0.0,1.0,0.0,5.0,0.0,0.0,0.0,1.0,1.0,1.0,0.23834998761910364,0.5070610309908524,-0.016065271716739257,0.11354919125592478
Encode-Decode_Experiment-1-1,2347400,decoding,-1.135227,0.0,0.203667,0.179406,-1.013811,0.0,0.195333,0.192672,6,0,0,False,0.4,2.0,0.333333,1.0,3.0,21,21,1.0,0.069835,,,,,,,31252.0,18.0,70.0,4.0,0.0,0.0,0.0,2.0,0.0,0.0,0.0,2.0,0.0,0.0,0.0,2.0,0.0,0.0,0.0,0.0,0.0,0.0,0.0,0.0,0.0,4.0,0.0,6.0,0.0,0.0,0.0,0.0,4.0,1.0,-1.141155644309492,1.5403364917575004,0.558896443005932,-0.78449189198145
Encode-Decode_Experiment-1-1,2347025,decoding,2.071172,0.923077,0.600692,0.155653,3.625921,0.923077,0.401385,0.143879,13,12,12,False,0.6,3.0,0.4,0.483333,5.0,19,18,0.9474,0.081798,,,,,,,44220.0,19.0,75.0,3.0,0.0,0.0,1.0,0.0,0.0,0.0,0.0,1.0,0.0,1.0,0.0,1.0,0.0,0.0,0.0,0.0,0.0,0.0,0.0,0.0,0.0,2.0,0.0,3.0,0.0,0.0,1.0,1.0,2.0,1.0,3.3756765607144463,1.1270263074508413,0.07500866389533205,-0.653912784623491
Encode-Decode_Experiment-1-1,2410309,decoding,0.664864,0.6,0.497,0.154919,-2.080411,0.0,0.310533,0.149265,15,9,0,False,0.6,3.0,0.2,0.816667,5.0,23,23,1.0,0.176868,,,,,,,36405.0,20.0,70.0,3.0,0.0,0.0,1.0,0.0,0.0,0.0,0.0,1.0,0.0,0.0,0.0,1.0,1.0,0.0,0.0,0.0,0.0,0.0,0.0,0.0,0.0,2.0,1.0,3.0,0.0,0.0,0.0,1.0,3.0,1.0,-2.1795029518433178,1.9536466760641595,0.558896443005932,0.3837998072448662
Encode-Decode_Experiment-1-1,150472,decoding,0.201968,0.333333,0.298889,0.170544,-0.60794,0.111111,0.206444,0.156814,9,3,1,False,0.2,1.0,-1.0,0.333333,3.0,12,12,1.0,0.161246,,,,,,,38149.0,21.0,86.0,5.0,0.0,0.0,0.0,3.0,0.0,0.0,0.0,1.0,0.0,0.0,0.0,2.0,0.0,0.0,0.0,0.0,0.0,0.0,0.0,0.0,0.0,3.0,0.0,8.0,0.0,0.0,0.0,0.0,3.0,1.0,-0.7460355805029465,-0.31955933762246586,0.558896443005932,0.2132818088208894
Encode-Decode_Experiment-1-1,2386442,decoding,-0.230409,0.5,0.536571,0.158723,0.137945,0.357143,0.337357,0.143432,14,7,5,False,0.5,3.0,0.333333,0.75,4.0,18,18,1.0,0.102708,,,,,,,66095.0,22.0,76.0,4.0,0.0,0.0,0.0,1.0,0.0,0.0,0.0,1.0,0.0,0.0,0.0,1.0,0.0,0.0,0.0,0.0,0.0,0.0,0.0,0.0,0.0,2.0,0.0,5.0,0.0,0.0,0.0,0.0,2.0,1.0,-0.01990799614154791,0.9203712152975116,0.558896443005932,-0.42567495674963657
Encode-Decode_Experiment-1-1,2397102,decoding,-0.16838,0.166667,0.197333,0.182128,-0.725665,0.0,0.098667,0.135967,6,1,0,False,0.4,2.0,1.0,1.0,2.0,21,19,0.9048,0.054078,,,,,,,67717.0,23.0,101.0,4.0,0.0,0.0,1.0,1.0,0.0,0.0,0.0,2.0,0.0,0.0,1.0,2.0,0.0,0.0,0.0,0.0,0.0,0.0,0.0,0.0,0.0,4.0,0.0,5.0,0.0,0.0,0.0,2.0,4.0,1.0,-0.8606422153983333,1.5403364917575004,-0.31688524085964037,-0.9564834488350284
Encode-Decode_Experiment-1-1,2345035,decoding,-0.993283,0.333333,0.523222,0.191173,-0.782585,0.222222,0.371889,0.191246,9,3,2,False,0.714286,5.0,0.619048,0.069048,7.0,17,15,0.8824,0.196564,,,,,,,28746.0,24.0,59.0,2.0,0.0,0.0,1.0,1.0,0.0,0.0,0.0,1.0,0.0,0.0,0.0,0.0,0.0,0.0,0.0,0.0,0.0,0.0,0.0,0.0,0.0,1.0,0.0,3.0,0.0,0.0,0.0,1.0,1.0,1.0,-0.9160544868635736,0.7137161231441821,-0.5229515194162465,0.5987865244999325
Encode-Decode_Experiment-1-1,2411268,decoding,1.786146,0.785714,0.497929,0.161121,2.46011,0.428571,0.1635,0.107748,14,11,6,False,0.5,2.0,0.333333,1.0,3.0,20,20,1.0,0.08537,,,,,,,23197.0,25.0,54.0,4.0,0.0,0.0,0.0,1.0,0.0,0.0,0.0,1.0,0.0,0.0,0.0,1.0,0.0,0.0,0.0,0.0,0.0,0.0,0.0,0.0,0.0,2.0,0.0,5.0,0.0,0.0,0.0,0.0,2.0,1.0,2.240746209183116,1.3336813996041708,0.558896443005932,-0.6149235201009942
Encode-Decode_Experiment-1-1,2348899,decoding,0.123366,0.333333,0.307667,0.208052,0.478218,0.166667,0.101833,0.135573,6,2,1,False,0.4,2.0,-0.333333,1.0,3.0,17,16,0.9412,0.12461,,,,,,,71566.0,26.0,161.0,4.0,0.0,0.0,2.0,2.0,0.0,0.0,1.0,1.0,0.0,0.0,0.0,4.0,0.0,0.0,0.0,0.0,0.0,0.0,0.0,0.0,0.0,5.0,0.0,6.0,0.0,0.0,0.0,3.0,5.0,1.0,0.31135166387763213,0.7137161231441821,0.017972461794843218,-0.18660920323011657
Encode-Decode_Experiment-1-1,2360001,decoding,1.259106,0.25,0.0995,0.119529,1.299048,0.25,0.099,0.116239,8,2,2,False,0.4,2.0,0.333333,1.0,3.0,19,18,0.9474,0.095826,,,,,,,24145.0,27.0,41.0,3.0,0.0,0.0,0.0,1.0,0.0,0.0,0.0,1.0,0.0,0.0,0.0,1.0,0.0,0.0,0.0,0.0,0.0,0.0,0.0,0.0,0.0,2.0,0.0,4.0,0.0,0.0,0.0,0.0,2.0,1.0,1.1104390635054122,1.1270263074508413,0.07500866389533205,-0.5007936909164403
Encode-Decode_Experiment-1-1,2349475,decoding,2.281704,0.4,0.1342,0.116492,,0.0,0.0,0.0,10,4,0,False,0.333333,2.0,-0.333333,0.75,4.0,19,19,1.0,0.055809,,,,,,,77043.0,28.0,169.0,,,,,,,,,,,,,,,,,,,,,,,,,,,,,,,,,1.1270263074508413,0.558896443005932,-0.9375891551932474
Encode-Decode_Experiment-1-1,2379478,decoding,,0.0,0.0,0.0,,0.0,0.0,0.0,8,0,0,False,0.4,2.0,1.0,1.0,2.0,24,22,0.9167,0.458496,,,,,,,22883.0,29.0,46.0,,,,,,,,,,,,,,,,,,,,,,,,,,,,,,,,,2.160301768217489,-0.2074125303764446,3.457839165851174
Encode-Decode_Experiment-1-1,2383555,decoding,0.414656,0.375,0.291,0.202578,1.032961,0.375,0.2055,0.164091,8,3,3,False,0.6,3.0,0.0,1.0,5.0,17,16,0.9412,0.189631,,,,,,,57145.0,30.0,119.0,,,,,,,,,,,,,,,,,,,,,,,,,,,,,,,,0.8514003235656475,0.7137161231441821,0.017972461794843218,0.5231111127041682
Encode-Decode_Experiment-2-1,2362704,decoding,-1.0083,0.0,0.069375,0.068804,,0.0,0.0,0.0,16,0,0,False,0.333333,2.0,0.333333,1.0,3.0,20,20,1.0,0.153456,,,,,,,41147.0,1.0,68.0,3.0,0.0,1.0,0.0,0.0,0.0,0.0,0.0,2.0,0.0,0.0,0.0,1.0,0.0,0.0,0.0,0.0,0.0,0.0,0.0,0.0,0.0,3.0,0.0,3.0,0.0,0.0,1.0,0.0,3.0,1.0,,1.3336813996041708,0.558896443005932,0.12825202980906134
Encode-Decode_Experiment-2-1,150472,decoding,-0.150394,0.142857,0.165571,0.151032,,0.0,0.0,0.0,7,1,0,False,0.75,3.0,0.333333,0.75,4.0,12,12,1.0,0.065708,,,,,,,32670.0,2.0,52.0,0.0,0.0,0.0,0.0,0.0,0.0,0.0,0.0,0.0,0.0,0.0,0.0,0.0,0.0,0.0,0.0,0.0,0.0,0.0,0.0,1.0,1.0,0.0,0.0,0.0,0.0,0.0,0.0,0.0,0.0,0.0,,-0.31955933762246586,0.558896443005932,-0.8295391189367535
Encode-Decode_Experiment-2-1,2386442,decoding,0.703086,0.5,0.342167,0.224487,1.949695,0.5,0.167667,0.170454,6,3,3,False,0.5,2.0,1.0,1.0,2.0,14,13,0.9286,0.044563,,,,,,,116372.0,3.0,193.0,3.0,0.0,0.0,4.0,3.0,0.0,0.0,0.0,1.0,0.0,0.0,0.0,3.0,0.0,0.0,0.0,0.0,0.0,1.0,0.0,0.0,0.0,4.0,0.0,6.0,0.0,0.0,1.0,4.0,4.0,1.0,1.743851364841397,0.09375084668419331,-0.0979398198932478,-1.0603420300028776
Encode-Decode_Experiment-2-1,2349475,decoding,-0.565369,0.076923,0.14,0.111568,-0.230339,0.076923,0.098077,0.091838,13,1,1,False,0.428571,3.0,0.4,0.483333,5.0,17,16,0.9412,0.159614,,,,,,,50667.0,5.0,125.0,,,,,,,,,,,,,,,,,,,,,,,,,,,,,,,,-0.37843668525441826,0.7137161231441821,0.017972461794843218,0.1954681246941496
Encode-Decode_Experiment-2-1,2385851,decoding,0.684794,0.266667,0.1858,0.118089,0.608248,0.2,0.136533,0.104343,15,4,3,False,0.428571,3.0,0.2,0.816667,5.0,19,18,0.9474,0.220397,,,,,,,31816.0,6.0,41.0,3.0,0.0,0.0,0.0,2.0,0.0,0.0,0.0,1.0,0.0,0.0,0.0,1.0,0.0,0.0,0.0,0.0,0.0,0.0,0.0,0.0,0.0,2.0,0.0,5.0,0.0,0.0,0.0,0.0,2.0,1.0,0.43793735710716847,1.1270263074508413,0.07500866389533205,0.8589296211865695
Encode-Decode_Experiment-2-1,2412687,decoding,-0.801581,0.0,0.171,0.213328,,0.0,0.0,0.0,4,0,0,False,1.0,4.0,1.0,0.083333,4.0,15,13,0.8667,0.066356,,,,,,,99840.0,7.0,110.0,3.0,0.0,0.0,3.0,1.0,0.0,1.0,0.0,2.0,0.0,0.0,0.0,0.0,0.0,0.0,0.0,1.0,0.0,0.0,0.0,0.0,0.0,2.0,0.0,4.0,0.0,1.0,1.0,3.0,2.0,1.0,,0.3004059388375229,-0.6673819021545809,-0.8224660384746657
Encode-Decode_Experiment-2-1,2374670,decoding,-1.029869,0.285714,0.488143,0.196558,-0.936618,0.142857,0.337143,0.207433,7,2,1,False,0.75,3.0,1.0,0.333333,3.0,12,12,1.0,0.305899,,,,,,,36093.0,8.0,83.0,2.0,0.0,0.0,1.0,2.0,0.0,0.0,0.0,2.0,0.0,0.0,0.0,2.0,0.0,0.0,0.0,0.0,0.0,0.0,0.0,0.0,0.0,4.0,0.0,4.0,0.0,0.0,0.0,1.0,4.0,1.0,-1.0660073753141246,-0.31955933762246586,0.558896443005932,1.7922051237628633
Encode-Decode_Experiment-2-1,2345035,decoding,-0.394948,0.25,0.326875,0.194646,-0.401342,0.25,0.326375,0.190299,8,2,2,False,1.0,3.0,1.0,0.333333,3.0,13,13,1.0,0.243879,,,,,,,47594.0,9.0,81.0,2.0,0.0,0.0,2.0,1.0,2.0,0.0,0.0,1.0,0.0,0.0,0.0,0.0,0.0,0.0,0.0,0.0,0.0,0.0,0.0,0.0,0.0,1.0,0.0,3.0,2.0,0.0,0.0,2.0,1.0,1.0,-0.5449100629313419,-0.11290424546913626,0.558896443005932,1.115241465956242
Encode-Decode_Experiment-2-1,2383555,decoding,0.436293,0.333333,0.26,0.168083,0.130724,0.222222,0.202333,0.152143,9,3,2,False,0.5,3.0,0.2,0.816667,5.0,15,14,0.9333,0.124215,,,,,,,53563.0,10.0,132.0,,,,,,,,,,,,,,,,,,,,,,,,,,,,,,,,-0.02693772228790246,0.3004059388375229,-0.05470269894610259,-0.19092072604265461
Encode-Decode_Experiment-2-1,2347400,decoding,1.434294,0.4,0.2034,0.137071,-0.235817,0.1,0.1263,0.111527,10,4,1,False,0.666667,4.0,1.0,0.083333,4.0,15,15,1.0,0.118355,,,,,,,51094.0,11.0,134.0,3.0,0.0,0.0,2.0,2.0,0.0,0.0,0.0,2.0,1.0,1.0,0.0,3.0,0.0,0.0,0.0,0.0,0.0,0.0,0.0,0.0,0.0,5.0,1.0,5.0,0.0,0.0,1.0,2.0,6.0,1.0,-0.38376958095165276,0.3004059388375229,0.558896443005932,-0.25488407713499267
Encode-Decode_Experiment-2-1,2347025,decoding,0.470615,0.875,0.7995,0.160428,-0.704317,0.25,0.4075,0.223621,8,7,2,False,0.6,3.0,0.2,0.816667,5.0,19,19,1.0,0.119685,,,,,,,40395.0,12.0,108.0,3.0,0.0,0.0,2.0,2.0,0.0,0.0,0.0,1.0,0.0,1.0,0.0,1.0,0.0,0.0,0.0,1.0,0.0,0.0,0.0,0.0,0.0,2.0,0.0,5.0,0.0,1.0,1.0,2.0,2.0,1.0,-0.8398596930645323,1.1270263074508413,0.558896443005932,-0.24036679779150982
Encode-Decode_Experiment-2-1,2385550,decoding,0.647146,0.444444,0.327,0.181481,0.137786,0.222222,0.200333,0.158861,9,4,2,False,0.5,3.0,0.0,1.0,5.0,19,15,0.7895,0.191269,,,,,,,61014.0,13.0,107.0,3.0,0.0,0.0,1.0,1.0,0.0,0.0,0.0,1.0,0.0,1.0,0.0,3.0,0.0,0.0,0.0,0.0,0.0,0.0,0.0,0.0,0.0,4.0,0.0,4.0,0.0,0.0,1.0,1.0,4.0,1.0,-0.020062784461347176,1.1270263074508413,-1.377574612180025,0.5409902883166681
Encode-Decode_Experiment-2-1,2348899,decoding,-0.606221,0.375,0.493125,0.194855,-0.293558,0.125,0.16875,0.149033,8,3,1,False,0.5,2.0,1.0,1.0,2.0,15,13,0.8667,0.134571,,,,,,,53326.0,14.0,112.0,3.0,0.0,0.0,2.0,3.0,0.0,0.0,1.0,3.0,0.0,0.0,0.0,0.0,0.0,0.0,0.0,0.0,0.0,0.0,0.0,0.0,0.0,3.0,0.0,6.0,0.0,0.0,0.0,3.0,3.0,1.0,-0.4399811053134665,0.3004059388375229,-0.6673819021545809,-0.07788242162076868
Encode-Decode_Experiment-2-1,2409918,decoding,1.078822,1.0,0.831714,0.15599,1.176836,0.571429,0.329714,0.205393,7,7,4,False,0.75,3.0,0.666667,0.333333,4.0,13,13,1.0,0.125211,,,,,,,34963.0,15.0,94.0,2.0,0.0,0.0,1.0,2.0,0.0,0.0,0.0,0.0,0.0,2.0,0.0,1.0,0.0,0.0,0.0,0.0,0.0,0.0,0.0,0.0,0.0,1.0,0.0,4.0,0.0,0.0,2.0,1.0,1.0,1.0,0.9914642827550617,-0.11290424546913626,0.558896443005932,-0.18004913940648268
Encode-Decode_Experiment-2-1,2379478,decoding,-0.058045,0.444444,0.455556,0.191421,0.39677,0.333333,0.271444,0.155982,9,4,3,False,0.666667,4.0,0.733333,0.055556,6.0,17,17,1.0,0.42265,,,,,,,26790.0,16.0,49.0,,,,,,,,,,,,,,,,,,,,,,,,,,,,,,,,0.2320611036826059,0.7137161231441821,0.558896443005932,3.0665711994252454
Encode-Decode_Experiment-2-1,2371471,decoding,,0.0,0.0,0.0,,0.0,0.0,0.0,2,0,0,False,1.0,2.0,1.0,1.0,2.0,14,14,1.0,0.139538,,,,,,,36449.0,17.0,0.0,0.0,0.0,0.0,0.0,0.0,0.0,0.0,0.0,0.0,0.0,0.0,0.0,0.0,0.0,0.0,0.0,0.0,0.0,0.0,0.0,1.0,0.0,0.0,0.0,0.0,0.0,0.0,0.0,0.0,0.0,0.0,,0.09375084668419331,0.558896443005932,-0.02366638665905489
Encode-Decode_Experiment-2-1,2397102,decoding,0.576662,0.375,0.274875,0.173629,1.737809,0.375,0.132375,0.139615,8,3,3,False,0.166667,1.0,,,1.0,19,19,1.0,0.062052,,,,,,,73061.0,20.0,143.0,4.0,0.0,1.0,1.0,4.0,1.0,0.0,0.0,2.0,0.0,0.0,0.0,2.0,1.0,0.0,0.0,0.0,0.0,0.0,0.0,0.0,0.0,4.0,1.0,8.0,1.0,0.0,1.0,1.0,5.0,1.0,1.5375779187471608,1.1270263074508413,0.558896443005932,-0.8694452642598914
Encode-Decode_Experiment-2-1,2394020,decoding,,1.0,1.0,0.0,,0.0,0.0,0.0,4,4,0,False,0.666667,2.0,1.0,1.0,2.0,13,11,0.8462,0.089789,,,,,,,30391.0,22.0,63.0,4.0,0.0,0.0,0.0,2.0,0.0,0.0,1.0,1.0,0.0,0.0,0.0,1.0,0.0,0.0,0.0,0.0,0.0,0.0,0.0,0.0,0.0,2.0,0.0,6.0,0.0,0.0,0.0,1.0,2.0,1.0,,-0.11290424546913626,-0.8559693445836178,-0.5666890408387004
Encode-Decode_Experiment-2-1,2344622,decoding,1.729974,1.0,0.66725,0.192344,,0.0,0.0,0.0,8,8,0,False,0.0,0.0,,,0.0,17,17,1.0,0.294127,,,,,,,36576.0,23.0,93.0,3.0,1.0,1.0,0.0,1.0,0.0,0.0,0.0,0.0,2.0,1.0,0.0,2.0,0.0,0.0,1.0,0.0,0.0,0.0,0.0,0.0,0.0,2.0,2.0,4.0,1.0,0.0,2.0,1.0,4.0,1.0,,0.7137161231441821,0.558896443005932,1.6637108287016005
Encode-Decode_Experiment-2-1,2360001,decoding,,0.0,0.0,0.0,,0.0,0.0,0.0,9,0,0,False,0.666667,2.0,1.0,1.0,2.0,19,19,1.0,0.139017,,,,,,,33002.0,24.0,84.0,3.0,0.0,0.0,0.0,1.0,0.0,0.0,0.0,1.0,0.0,0.0,0.0,1.0,0.0,0.0,0.0,1.0,0.0,0.0,0.0,0.0,0.0,2.0,0.0,4.0,0.0,1.0,0.0,0.0,2.0,1.0,,1.1270263074508413,0.558896443005932,-0.0293532306725545
Encode-Decode_Experiment-2-1,2356991,decoding,,0.0,0.0,0.0,,0.0,0.0,0.0,2,0,0,False,1.0,2.0,1.0,1.0,2.0,12,12,1.0,0.038629,,,,,,,33028.0,25.0,82.0,2.0,0.0,0.0,2.0,1.0,0.0,0.0,0.0,0.0,1.0,0.0,0.0,1.0,0.0,0.0,0.0,0.0,0.0,0.0,0.0,0.0,0.0,1.0,1.0,3.0,0.0,0.0,0.0,2.0,2.0,1.0,,-0.31955933762246586,0.558896443005932,-1.1251131094195899
Encode-Decode_Experiment-2-1,2370664,decoding,,1.0,1.0,0.0,,1.0,1.0,0.0,2,2,2,False,0.5,1.0,,,1.0,11,10,0.9091,0.103671,,,,,,,49780.0,27.0,154.0,4.0,0.0,0.0,1.0,6.0,0.0,0.0,0.0,1.0,0.0,0.0,0.0,2.0,0.0,0.0,0.0,1.0,0.0,0.0,0.0,0.0,0.0,3.0,0.0,10.0,0.0,1.0,0.0,1.0,3.0,1.0,,-0.5262144297757955,-0.2773278748867209,-0.41516357328514475
Encode-Decode_Experiment-2-1,2408717,decoding,,1.0,1.0,0.0,,0.0,0.0,0.0,3,3,0,False,0.333333,1.0,,,1.0,9,9,1.0,0.041422,,,,,,,35022.0,28.0,106.0,2.0,0.0,0.0,0.0,2.0,0.0,0.0,0.0,1.0,0.0,0.0,2.0,2.0,0.0,0.0,0.0,0.0,0.0,0.0,0.0,0.0,0.0,3.0,0.0,4.0,0.0,0.0,0.0,2.0,3.0,1.0,,-0.9395246140824546,0.558896443005932,-1.0946268227982758
Encode-Decode_Experiment-2-1,2350974,decoding,-2.711135,0.125,0.658125,0.196643,-2.827286,0.125,0.676375,0.195019,8,1,1,False,0.333333,1.0,-1.0,1.0,2.0,14,14,1.0,0.161599,,,,,,,20199.0,29.0,48.0,3.0,0.0,0.0,0.0,1.0,0.0,0.0,0.0,1.0,0.0,0.0,0.0,1.0,0.0,0.0,0.0,0.0,0.0,0.0,0.0,0.0,0.0,2.0,0.0,4.0,0.0,0.0,0.0,0.0,2.0,1.0,-2.906594312535542,0.09375084668419331,0.558896443005932,0.21713489123310695
Encode-Decode_Experiment-3-1,2349475,decoding,1.057191,0.5,0.3069,0.182654,1.399735,0.4,0.1958,0.145885,10,5,4,False,0.4,2.0,0.0,1.0,4.0,14,14,1.0,0.083703,,,,,,,12112.0,1.0,47.0,,,,,,,,,,,,,,,,,,,,,,,,,,,,,,,,1.2084590103961477,0.09375084668419331,0.558896443005932,-0.6331192378946678
Encode-Decode_Experiment-3-1,2409918,decoding,,0.0,0.0,0.0,,0.0,0.0,0.0,2,0,0,False,1.0,2.0,1.0,1.0,2.0,11,11,1.0,0.021559,,,,,,,7036.0,2.0,30.0,2.0,0.0,0.0,0.0,1.0,0.0,0.0,0.0,1.0,0.0,0.0,0.0,2.0,0.0,0.0,0.0,0.0,0.0,0.0,0.0,0.0,0.0,3.0,0.0,3.0,0.0,0.0,0.0,0.0,3.0,1.0,,-0.5262144297757955,0.558896443005932,-1.3114363864069976
Encode-Decode_Experiment-3-1,2383555,decoding,0.737571,0.214286,0.137429,0.104203,-0.029828,0.071429,0.073714,0.076631,14,3,1,False,0.5,4.0,0.2,0.719444,6.0,19,17,0.8947,0.134081,,,,,,,3621.0,3.0,10.0,,,,,,,,,,,,,,,,,,,,,,,,,,,,,,,,-0.18323693185022272,1.1270263074508413,-0.40979905395882404,-0.08323089295784121
Encode-Decode_Experiment-3-1,2410309,decoding,,0.0,0.0,0.0,,0.0,0.0,0.0,2,0,0,False,0.5,1.0,-1.0,1.0,2.0,6,6,1.0,0.15008,,,,,,,16315.0,5.0,61.0,4.0,0.0,0.0,0.0,1.0,0.0,0.0,0.0,0.0,0.0,0.0,0.0,3.0,0.0,0.0,0.0,0.0,0.0,0.0,0.0,0.0,0.0,3.0,0.0,5.0,0.0,0.0,0.0,0.0,3.0,1.0,,-1.5594898905424432,0.558896443005932,0.09140215382139338
Encode-Decode_Experiment-3-1,2386442,decoding,,1.0,1.0,0.0,0.473134,0.5,0.3225,0.375158,2,2,1,False,0.666667,2.0,1.0,1.0,2.0,8,6,0.75,0.12274,,,,,,,6809.0,7.0,31.0,3.0,0.0,0.0,1.0,0.0,0.0,0.0,0.0,1.0,0.0,0.0,0.0,0.0,0.0,0.0,0.0,0.0,0.0,0.0,0.0,0.0,0.0,1.0,0.0,3.0,0.0,0.0,0.0,1.0,1.0,1.0,0.3064023316898373,-1.1461797062357841,-1.7409504158847529,-0.20702071629200597
Encode-Decode_Experiment-3-1,2348899,decoding,0.480829,0.666667,0.504333,0.337611,,0.0,0.0,0.0,3,2,0,False,0.75,3.0,1.0,0.333333,3.0,6,6,1.0,0.089038,,,,,,,11233.0,8.0,50.0,4.0,0.0,0.0,1.0,1.0,0.0,0.0,0.0,2.0,0.0,0.0,0.0,2.0,0.0,0.0,0.0,0.0,0.0,0.0,0.0,0.0,0.0,4.0,0.0,5.0,0.0,0.0,0.0,1.0,4.0,1.0,,-1.5594898905424432,0.558896443005932,-0.5748863918063362
Encode-Decode_Experiment-3-1,2362704,decoding,,0.0,0.0,0.0,,0.0,0.0,0.0,3,0,0,False,0.333333,1.0,-1.0,0.333333,3.0,7,4,0.5714,0.01996,,,,,,,8633.0,9.0,35.0,3.0,0.0,0.0,0.0,1.0,0.0,0.0,0.0,1.0,0.0,0.0,0.0,1.0,0.0,0.0,0.0,0.0,0.0,0.0,0.0,0.0,0.0,2.0,0.0,4.0,0.0,0.0,0.0,0.0,2.0,1.0,,-1.3528347983891138,-3.383961011876258,-1.328889867362057
Encode-Decode_Experiment-3-1,2370664,decoding,-0.405178,0.5,0.653,0.377612,,0.0,0.0,0.0,2,1,0,False,0.333333,1.0,,,1.0,7,3,0.4286,0.282149,,,,,,,9618.0,10.0,41.0,3.0,0.0,0.0,0.0,2.0,0.0,0.0,0.0,1.0,0.0,0.0,0.0,0.0,0.0,0.0,0.0,1.0,0.0,0.0,0.0,0.0,0.0,1.0,0.0,5.0,0.0,1.0,0.0,0.0,1.0,1.0,,-1.3528347983891138,-4.697633537674617,1.532967992629241
Encode-Decode_Experiment-3-1,2367132,decoding,-1.508302,0.333333,0.666167,0.220668,-0.005077,0.333333,0.3345,0.229792,6,2,2,False,0.666667,2.0,-0.333333,1.0,3.0,12,12,1.0,0.04617,,,,,,,10604.0,11.0,42.0,5.0,0.0,0.0,0.0,0.0,0.0,0.0,0.0,1.0,0.0,0.0,0.0,1.0,0.0,0.0,0.0,0.0,0.0,0.0,0.0,0.0,0.0,2.0,0.0,5.0,0.0,0.0,0.0,0.0,2.0,1.0,-0.15914155006813974,-0.31955933762246586,0.558896443005932,-1.0428012270668046
Encode-Decode_Experiment-3-1,2412687,decoding,0.638552,0.25,0.160625,0.139965,,0.0,0.0,0.0,8,2,0,False,0.25,1.0,-1.0,0.083333,4.0,20,19,0.95,0.025826,,,,,,,2802.0,13.0,10.0,0.0,0.0,0.0,0.0,0.0,0.0,0.0,0.0,0.0,0.0,0.0,0.0,0.0,0.0,0.0,0.0,0.0,0.0,0.0,0.0,1.0,0.0,0.0,0.0,0.0,0.0,0.0,0.0,0.0,0.0,0.0,,1.3336813996041708,0.09892707122779458,-1.264861024783959
Encode-Decode_Experiment-3-1,2408717,decoding,0.308915,0.4,0.3262,0.238901,,0.0,0.0,0.0,5,2,0,False,0.75,3.0,1.0,0.333333,3.0,15,15,1.0,0.1852,,,,,,,12244.0,14.0,47.0,2.0,0.0,0.0,0.0,2.0,0.0,0.0,0.0,2.0,0.0,0.0,0.0,1.0,0.0,0.0,0.0,0.0,0.0,0.0,0.0,0.0,0.0,3.0,0.0,4.0,0.0,0.0,0.0,0.0,3.0,1.0,,0.3004059388375229,0.558896443005932,0.47474565047035433
Encode-Decode_Experiment-3-1,2379478,decoding,1.239704,1.0,0.66325,0.271637,0.613962,0.5,0.333,0.272004,4,4,2,False,0.666667,2.0,1.0,1.0,2.0,5,5,1.0,0.249157,,,,,,,15376.0,16.0,64.0,,,,,,,,,,,,,,,,,,,,,,,,,,,,,,,,0.44350000150548863,-1.766144982695773,0.558896443005932,1.1728521429298526
Encode-Decode_Experiment-3-1,2360001,decoding,-1.566644,0.0,0.327857,0.209274,-1.06075,0.0,0.162571,0.153261,7,0,0,False,0.25,1.0,-1.0,0.333333,3.0,12,12,1.0,0.217801,,,,,,,10930.0,17.0,45.0,3.0,0.0,0.0,0.0,1.0,0.0,0.0,0.0,1.0,0.0,0.0,0.0,2.0,0.0,0.0,0.0,0.0,0.0,0.0,0.0,0.0,0.0,3.0,0.0,4.0,0.0,0.0,0.0,0.0,3.0,1.0,-1.1868512980394097,-0.31955933762246586,0.558896443005932,0.830593638347711
Encode-Decode_Experiment-3-1,2371471,decoding,0.313723,0.75,0.66425,0.27333,-0.77121,0.0,0.15275,0.198065,4,3,0,False,0.5,2.0,0.0,1.0,4.0,15,14,0.9333,0.188777,,,,,,,10766.0,18.0,49.0,0.0,0.0,0.0,0.0,0.0,0.0,0.0,0.0,0.0,0.0,0.0,0.0,0.0,0.0,0.0,0.0,0.0,0.0,0.0,0.0,1.0,1.0,0.0,0.0,0.0,0.0,0.0,0.0,0.0,0.0,0.0,-0.904980794173533,0.3004059388375229,-0.05470269894610259,0.5137894912309845
Encode-Decode_Experiment-3-1,2350974,decoding,1.906416,0.75,0.39175,0.187918,-0.098148,0.25,0.26725,0.175755,8,6,2,False,0.5,3.0,0.0,1.0,4.0,18,16,0.8889,0.184981,,,,,,,9610.0,19.0,42.0,2.0,0.0,0.0,0.0,1.0,0.0,0.0,0.0,1.0,0.0,0.0,0.0,1.0,0.0,0.0,0.0,0.0,0.0,0.0,0.0,0.0,0.0,2.0,0.0,3.0,0.0,0.0,0.0,0.0,2.0,1.0,-0.2497472337916356,0.9203712152975116,-0.4631555010850882,0.4723552112401117
Encode-Decode_Experiment-3-1,2344622,decoding,-0.459143,0.333333,0.491,0.343393,,0.0,0.0,0.0,3,1,0,False,0.5,2.0,-0.333333,1.0,3.0,7,7,1.0,0.104069,,,,,,,12296.0,22.0,54.0,4.0,0.0,0.0,0.0,1.0,0.0,0.0,0.0,1.0,0.0,0.0,0.0,2.0,0.0,0.0,1.0,0.0,0.0,0.0,0.0,0.0,0.0,3.0,0.0,5.0,0.0,0.0,0.0,1.0,3.0,1.0,,-1.3528347983891138,0.558896443005932,-0.41081930472972666
Encode-Decode_Experiment-3-1,2385851,decoding,,0.0,0.0,0.0,,0.0,0.0,0.0,5,0,0,False,0.25,1.0,-1.0,1.0,2.0,10,10,1.0,0.229994,,,,,,,16630.0,23.0,73.0,3.0,0.0,0.0,0.0,3.0,0.0,0.0,0.0,1.0,0.0,0.0,0.0,2.0,0.0,0.0,0.0,0.0,0.0,0.0,0.0,0.0,0.0,3.0,0.0,6.0,0.0,0.0,0.0,0.0,3.0,1.0,,-0.732869521929125,0.558896443005932,0.9636832526598063
Encode-Decode_Experiment-3-1,2385550,decoding,1.878046,1.0,0.4872,0.27305,1.043476,0.6,0.3484,0.241117,5,5,3,False,0.5,2.0,1.0,1.0,2.0,10,10,1.0,0.095316,,,,,,,15127.0,24.0,75.0,3.0,0.0,0.0,0.0,1.0,0.0,1.0,0.0,1.0,0.0,1.0,0.0,1.0,0.0,0.0,1.0,0.0,0.0,0.0,0.0,0.0,0.0,2.0,0.0,4.0,0.0,0.0,2.0,1.0,2.0,1.0,0.8616367964127488,-0.732869521929125,0.558896443005932,-0.5063604672060464
Encode-Decode_Experiment-3-1,150472,decoding,1.028901,0.6,0.3424,0.250364,1.152083,0.6,0.327,0.236962,5,3,3,False,0.25,1.0,-1.0,1.0,2.0,7,7,1.0,0.052404,,,,,,,14793.0,28.0,61.0,0.0,0.0,0.0,0.0,0.0,0.0,0.0,0.0,0.0,0.0,0.0,0.0,0.0,0.0,0.0,0.0,0.0,0.0,0.0,0.0,1.0,1.0,0.0,0.0,0.0,0.0,0.0,0.0,0.0,0.0,0.0,0.9673669539500881,-1.3528347983891138,0.558896443005932,-0.9747555733620887
Encode-Decode_Experiment-3-1,2369373,decoding,1.774127,0.5,0.2085,0.164306,,0.0,0.0,0.0,8,4,0,False,0.166667,1.0,-1.0,1.0,2.0,11,10,0.9091,0.169613,,,,,,,6788.0,29.0,22.0,3.0,0.0,0.0,0.0,0.0,0.0,0.0,0.0,1.0,0.0,0.0,0.0,1.0,0.0,0.0,0.0,0.0,0.0,0.0,0.0,0.0,0.0,2.0,0.0,3.0,0.0,0.0,0.0,0.0,2.0,1.0,,-0.5262144297757955,-0.2773278748867209,0.3046096857133114
Encode-Decode_Experiment-3-1,2345035,decoding,0.005465,0.333333,0.331667,0.304954,,0.0,0.0,0.0,3,1,0,False,0.666667,2.0,1.0,1.0,2.0,7,5,0.7143,0.250669,,,,,,,12565.0,30.0,56.0,2.0,0.0,0.0,0.0,2.0,0.0,0.0,0.0,1.0,0.0,0.0,0.0,2.0,0.0,0.0,0.0,0.0,0.0,0.0,0.0,0.0,0.0,3.0,0.0,4.0,0.0,0.0,0.0,0.0,3.0,1.0,,-1.3528347983891138,-2.069368547334342,1.189355997341391
Encode-Decode_Experiment-4-1,2371471,decoding,,1.0,1.0,0.0,,1.0,1.0,0.0,9,9,9,False,1.0,2.0,1.0,1.0,2.0,20,20,1.0,0.131041,,,,,,,60180.0,1.0,185.0,3.0,0.0,0.0,4.0,0.0,0.0,0.0,0.0,3.0,0.0,0.0,0.0,1.0,0.0,0.0,0.0,1.0,0.0,0.0,0.0,0.0,0.0,4.0,0.0,3.0,0.0,1.0,0.0,4.0,4.0,1.0,,1.3336813996041708,0.558896443005932,-0.11641324574294504
Encode-Decode_Experiment-4-1,2385851,decoding,1.133255,0.2,0.0652,0.118949,,0.0,0.0,0.0,5,1,0,False,0.5,3.0,0.0,1.0,4.0,15,15,1.0,0.122417,,,,,,,33790.0,2.0,83.0,3.0,0.0,0.0,0.0,3.0,0.0,0.0,0.0,2.0,0.0,0.0,0.0,3.0,0.0,0.0,0.0,0.0,0.0,0.0,0.0,0.0,0.0,5.0,0.0,6.0,0.0,0.0,0.0,0.0,5.0,1.0,,0.3004059388375229,0.558896443005932,-0.21054634127542327
Encode-Decode_Experiment-4-1,2394020,decoding,-0.014115,0.5,0.503333,0.23615,0.591703,0.166667,0.088833,0.131541,6,3,1,False,0.4,2.0,-0.333333,1.0,3.0,9,9,1.0,0.215475,,,,,,,44416.0,3.0,118.0,4.0,0.0,0.0,0.0,3.0,0.0,0.0,2.0,1.0,0.0,0.0,0.0,1.0,1.0,0.0,0.0,0.0,0.0,0.0,0.0,0.0,0.0,2.0,1.0,7.0,0.0,0.0,0.0,2.0,3.0,1.0,0.4218306102450391,-0.9395246140824546,0.558896443005932,0.8052047723680561
Encode-Decode_Experiment-4-1,2369373,decoding,0.390075,0.727273,0.665,0.159643,,0.0,0.0,0.0,11,8,0,False,0.666667,2.0,1.0,1.0,2.0,17,17,1.0,0.158121,,,,,,,40345.0,4.0,122.0,5.0,0.0,0.0,2.0,4.0,0.0,0.0,0.0,1.0,0.0,0.0,1.0,1.0,0.0,0.0,1.0,0.0,0.0,0.0,0.0,0.0,0.0,2.0,0.0,9.0,0.0,0.0,0.0,4.0,2.0,1.0,,0.7137161231441821,0.558896443005932,0.17917165998751816
Encode-Decode_Experiment-4-1,2344622,decoding,0.366981,0.25,0.1705,0.216633,0.404227,0.25,0.1705,0.196672,4,1,1,False,0.5,2.0,0.333333,1.0,3.0,19,18,0.9474,0.189899,,,,,,,36588.0,6.0,81.0,4.0,0.0,2.0,0.0,2.0,0.0,0.0,0.0,1.0,0.0,0.0,0.0,3.0,0.0,0.0,0.0,0.0,0.0,0.0,0.0,0.0,0.0,4.0,0.0,6.0,0.0,0.0,2.0,0.0,4.0,1.0,0.23932057853004612,1.1270263074508413,0.07500866389533205,0.5260363990681183
Encode-Decode_Experiment-4-1,2360001,decoding,1.188577,0.363636,0.197818,0.13951,1.14492,0.272727,0.137182,0.118389,11,4,3,False,0.5,3.0,0.666667,0.333333,4.0,16,16,1.0,0.208077,,,,,,,40965.0,7.0,0.0,0.0,0.0,0.0,0.0,0.0,0.0,0.0,0.0,0.0,0.0,0.0,0.0,0.0,0.0,0.0,0.0,0.0,0.0,0.0,0.0,1.0,0.0,0.0,0.0,0.0,0.0,0.0,0.0,0.0,0.0,0.0,0.9603936914675597,0.5070610309908524,0.558896443005932,0.7244537704258862
Encode-Decode_Experiment-4-1,2411268,decoding,1.866431,0.928571,0.664,0.141753,-0.84866,0.214286,0.335286,0.142578,14,13,3,False,1.0,3.0,1.0,0.333333,3.0,20,20,1.0,0.066589,,,,,,,48952.0,8.0,159.0,4.0,0.0,1.0,1.0,2.0,0.0,0.0,0.0,2.0,0.0,0.0,1.0,3.0,0.0,0.0,0.0,1.0,0.0,0.0,0.0,0.0,0.0,5.0,0.0,6.0,0.0,1.0,1.0,2.0,5.0,1.0,-0.9803792556103367,1.3336813996041708,0.558896443005932,-0.8199227857776495
Encode-Decode_Experiment-4-1,2347400,decoding,,0.0,0.0,0.0,,0.0,0.0,0.0,5,0,0,False,0.25,1.0,-1.0,1.0,2.0,13,9,0.6923,0.090873,,,,,,,49913.0,10.0,103.0,3.0,0.0,0.0,3.0,5.0,0.0,0.0,0.0,2.0,0.0,0.0,0.0,1.0,0.0,0.0,0.0,0.0,0.0,0.0,0.0,0.0,0.0,3.0,0.0,8.0,0.0,0.0,0.0,3.0,3.0,1.0,,-0.11290424546913626,-2.271755070916723,-0.5548569124113806
Encode-Decode_Experiment-4-1,2410309,decoding,0.838723,0.666667,0.502333,0.195933,-1.238563,0.0,0.173333,0.139947,9,6,0,False,0.75,3.0,0.666667,0.333333,4.0,14,14,1.0,0.117017,,,,,,,29422.0,11.0,0.0,0.0,0.0,0.0,0.0,0.0,0.0,0.0,0.0,0.0,0.0,0.0,0.0,0.0,0.0,0.0,0.0,0.0,0.0,0.0,0.0,1.0,0.0,0.0,0.0,0.0,0.0,0.0,0.0,0.0,0.0,0.0,-1.3599542886586786,0.09375084668419331,0.558896443005932,-0.26948867845948904
Encode-Decode_Experiment-4-1,2374670,decoding,1.748371,0.7,0.3984,0.172503,1.759381,0.7,0.3989,0.17114,10,7,7,False,0.333333,2.0,-0.333333,0.469444,6.0,15,15,1.0,0.197371,,,,,,,71005.0,12.0,191.0,3.0,0.0,0.0,4.0,3.0,0.0,2.0,0.0,3.0,0.0,0.0,1.0,5.0,0.0,0.0,1.0,0.0,0.0,0.0,0.0,0.0,0.0,8.0,0.0,6.0,0.0,0.0,2.0,6.0,8.0,1.0,1.558578507644704,0.3004059388375229,0.558896443005932,0.6075951293346623
Encode-Decode_Experiment-4-1,2383555,decoding,1.518788,0.666667,0.336167,0.217608,-0.003885,0.166667,0.167333,0.171593,6,4,1,False,0.5,2.0,1.0,1.0,2.0,15,15,1.0,0.131643,,,,,,,53022.0,13.0,115.0,,,,,,,,,,,,,,,,,,,,,,,,,,,,,,,,-0.15798112442536802,0.3004059388375229,0.558896443005932,-0.10984226667168416
Encode-Decode_Experiment-4-1,2350974,decoding,0.298017,0.4,0.329,0.238241,0.265624,0.4,0.3354,0.243201,5,2,2,False,0.5,2.0,1.0,1.0,2.0,18,18,1.0,0.08706,,,,,,,32983.0,14.0,114.0,4.0,0.0,0.0,4.0,4.0,0.0,0.0,1.0,1.0,0.0,0.0,0.0,2.0,0.0,0.0,0.0,0.0,0.0,0.0,0.0,0.0,0.0,3.0,0.0,8.0,0.0,0.0,0.0,5.0,3.0,1.0,0.1043889716801391,0.9203712152975116,0.558896443005932,-0.5964767516119069
Encode-Decode_Experiment-4-1,2367132,decoding,0.007218,0.333333,0.332,0.184721,,0.0,0.0,0.0,9,3,0,False,0.25,1.0,,,1.0,17,17,1.0,0.045624,,,,,,,44274.0,15.0,120.0,5.0,0.0,0.0,0.0,1.0,0.0,1.0,0.0,0.0,0.0,0.0,0.0,3.0,0.0,0.0,0.0,0.0,0.0,0.0,0.0,0.0,0.0,3.0,0.0,6.0,0.0,0.0,1.0,0.0,3.0,1.0,,0.7137161231441821,0.558896443005932,-1.0487609522709713
Encode-Decode_Experiment-4-1,2408717,decoding,,0.0,0.0,0.0,,0.0,0.0,0.0,3,0,0,False,0.333333,1.0,-1.0,1.0,2.0,13,12,0.9231,0.084928,,,,,,,45680.0,16.0,157.0,3.0,0.0,0.0,2.0,3.0,0.0,0.0,0.0,1.0,0.0,0.0,2.0,2.0,0.0,0.0,1.0,0.0,0.0,0.0,0.0,0.0,0.0,3.0,0.0,6.0,0.0,0.0,0.0,5.0,3.0,1.0,,-0.11290424546913626,-0.14853645078884242,-0.6197480595519862
Encode-Decode_Experiment-4-1,2379478,decoding,-0.849734,0.25,0.4925,0.285384,-0.865436,0.0,0.1955,0.225898,4,1,0,False,0.4,2.0,0.333333,1.0,3.0,6,5,0.8333,0.446368,,,,,,,27368.0,17.0,0.0,,,,,,,,,,,,,,,,,,,,,,,,,,,,,,,,-0.9967108836163254,-1.5594898905424432,-0.9746414425023764,3.325459042634813
Encode-Decode_Experiment-4-1,2356125,decoding,0.463894,0.666667,0.511667,0.334128,1.050543,0.666667,0.345,0.306191,3,2,2,False,0.5,2.0,-0.333333,1.0,3.0,18,18,1.0,0.057042,,,,,,,5787.0,18.0,0.0,0.0,0.0,0.0,0.0,0.0,0.0,0.0,0.0,0.0,0.0,0.0,0.0,0.0,0.0,0.0,0.0,0.0,0.0,0.0,0.0,1.0,0.0,0.0,0.0,0.0,0.0,0.0,0.0,0.0,0.0,0.0,0.8685166017965305,0.9203712152975116,0.558896443005932,-0.9241306548695523
Encode-Decode_Experiment-4-1,2348899,decoding,0.974047,0.714286,0.503,0.216915,0.936571,0.714286,0.505,0.22346,7,5,5,False,1.0,4.0,1.0,0.083333,4.0,22,21,0.9545,0.164233,,,,,,,59960.0,20.0,192.0,4.0,0.0,0.0,3.0,5.0,0.0,0.0,0.0,2.0,0.0,0.0,0.0,3.0,0.0,0.0,1.0,0.0,0.0,0.0,0.0,0.0,0.0,5.0,0.0,9.0,0.0,0.0,0.0,4.0,5.0,1.0,0.7575635553552731,1.7469915839108299,0.14032431468782747,0.245885653481779
Encode-Decode_Experiment-4-1,2409918,decoding,-0.613334,0.375,0.50775,0.21644,0.567573,0.25,0.166875,0.146457,8,3,2,False,0.75,3.0,1.0,0.333333,3.0,13,13,1.0,0.083134,,,,,,,48299.0,21.0,115.0,2.0,0.0,0.0,1.0,2.0,0.0,0.0,0.0,1.0,0.0,0.0,0.0,2.0,2.0,0.0,0.0,0.0,0.0,0.0,0.0,0.0,0.0,3.0,2.0,4.0,0.0,0.0,0.0,1.0,5.0,1.0,0.39833977907047396,-0.11290424546913626,0.558896443005932,-0.639330013794248
Encode-Decode_Experiment-4-1,2362704,decoding,0.496141,0.25,0.1525,0.196517,,0.0,0.0,0.0,4,1,0,False,0.75,3.0,0.333333,0.75,4.0,11,11,1.0,0.127878,,,,,,,27621.0,23.0,61.0,3.0,0.0,0.0,0.0,2.0,0.0,0.0,0.0,1.0,0.0,0.0,0.0,1.0,0.0,0.0,0.0,0.0,0.0,0.0,0.0,0.0,0.0,2.0,0.0,5.0,0.0,0.0,0.0,0.0,2.0,1.0,,-0.5262144297757955,0.558896443005932,-0.1509381739861302
Encode-Decode_Experiment-4-1,150472,decoding,-0.020307,0.333333,0.338,0.229808,0.844775,0.166667,0.070167,0.114232,6,2,1,False,0.333333,2.0,0.2,0.816667,5.0,17,17,1.0,0.148441,,,,,,,51631.0,24.0,142.0,0.0,0.0,0.0,0.0,0.0,0.0,0.0,0.0,0.0,0.0,0.0,0.0,0.0,0.0,0.0,0.0,0.0,0.0,0.0,0.0,1.0,1.0,0.0,0.0,0.0,0.0,0.0,0.0,0.0,0.0,0.0,0.668199098724507,0.7137161231441821,0.558896443005932,0.07351206296126675
Encode-Decode_Experiment-4-1,2356991,decoding,,0.0,0.0,0.0,,0.0,0.0,0.0,4,0,0,False,0.5,1.0,,,1.0,24,24,1.0,0.061716,,,,,,,70295.0,25.0,164.0,3.0,0.0,0.0,2.0,3.0,1.0,0.0,0.0,1.0,0.0,1.0,0.0,1.0,0.0,0.0,0.0,0.0,0.0,0.0,0.0,0.0,0.0,2.0,0.0,6.0,1.0,0.0,1.0,2.0,2.0,1.0,,2.160301768217489,0.558896443005932,-0.8731127874624556
Encode-Decode_Experiment-4-1,2397102,decoding,-0.365647,0.4,0.4964,0.263642,-0.891449,0.0,0.1696,0.190252,5,2,0,False,0.25,1.0,-1.0,1.0,2.0,19,18,0.9474,0.065275,,,,,,,61884.0,26.0,193.0,5.0,0.0,0.0,5.0,4.0,1.0,0.0,0.0,2.0,0.0,0.0,2.0,3.0,0.0,0.0,0.0,0.0,0.0,0.0,0.0,0.0,0.0,5.0,0.0,9.0,1.0,0.0,0.0,7.0,5.0,1.0,-1.0220348368423497,1.1270263074508413,0.07500866389533205,-0.8342654211591055
Encode-Decode_Experiment-4-1,2347025,decoding,,1.0,1.0,0.0,-1.454914,0.375,0.655,0.192451,8,8,3,False,0.333333,1.0,-1.0,0.333333,3.0,19,17,0.8947,0.1061,,,,,,,51590.0,28.0,148.0,3.0,0.0,1.0,3.0,1.0,0.0,0.0,0.0,2.0,0.0,1.0,0.0,2.0,0.0,0.0,0.0,0.0,0.0,0.0,0.0,0.0,0.0,4.0,0.0,4.0,0.0,0.0,2.0,3.0,4.0,1.0,-1.570574463356082,1.1270263074508413,-0.40979905395882404,-0.3886504367999419
Encode-Decode_Experiment-4-1,2349475,decoding,,0.0,0.0,0.0,,0.0,0.0,0.0,5,0,0,False,0.333333,1.0,-1.0,0.333333,3.0,20,20,1.0,0.027336,,,,,,,76752.0,29.0,289.0,,,,,,,,,,,,,,,,,,,,,,,,,,,,,,,,,1.3336813996041708,0.558896443005932,-1.2483790008676738
Encode-Decode_Experiment-5-1,2369373,decoding,0.029462,0.666667,0.657333,0.316792,,0.0,0.0,0.0,3,2,0,False,0.666667,2.0,1.0,1.0,2.0,7,7,1.0,0.154891,,,,,,,42578.0,4.0,121.0,,,,,,,,,,,,,,,,,,,,,,,,,,,,,,,,,-1.3528347983891138,0.558896443005932,0.14391541015334539
Encode-Decode_Experiment-5-1,2410309,decoding,0.467298,0.25,0.15575,0.201691,,0.0,0.0,0.0,4,1,0,False,0.75,3.0,1.0,0.333333,3.0,10,9,0.9,0.151746,,,,,,,52776.0,7.0,96.0,,,,,,,,,,,,,,,,,,,,,,,,,,,,,,,,,-0.732869521929125,-0.3610423005503418,0.10958695636744034
Encode-Decode_Experiment-5-1,2360001,decoding,0.627031,0.5,0.33375,0.265139,,0.0,0.0,0.0,4,2,0,False,0.25,1.0,-1.0,1.0,2.0,6,5,0.8333,0.169165,,,,,,,42092.0,8.0,84.0,,,,,,,,,,,,,,,,,,,,,,,,,,,,,,,,,-1.5594898905424432,-0.9746414425023764,0.2997196547765592
Encode-Decode_Experiment-5-1,2350974,decoding,0.002826,0.5,0.49925,0.2654,0.020627,0.5,0.4945,0.266636,4,2,2,False,0.5,2.0,-0.333333,1.0,3.0,9,9,1.0,0.309613,,,,,,,54546.0,9.0,120.0,,,,,,,,,,,,,,,,,,,,,,,,,,,,,,,,-0.13411841187870652,-0.9395246140824546,0.558896443005932,1.832744353448349
Encode-Decode_Experiment-5-1,2412687,decoding,,0.0,0.0,0.0,,0.0,0.0,0.0,4,0,0,False,1.0,2.0,1.0,1.0,2.0,11,11,1.0,0.050348,,,,,,,93447.0,11.0,106.0,,,,,,,,,,,,,,,,,,,,,,,,,,,,,,,,,-0.5262144297757955,0.558896443005932,-0.9971973224825404
Encode-Decode_Experiment-5-1,2397102,decoding,0.936103,0.714286,0.496857,0.23227,-1.067424,0.0,0.172571,0.161671,7,5,0,False,0.75,3.0,1.0,0.333333,3.0,15,14,0.9333,0.065797,,,,,,,49814.0,13.0,161.0,,,,,,,,,,,,,,,,,,,,,,,,,,,,,,,,-1.1933485134251969,0.3004059388375229,-0.05470269894610259,-0.8285676618979791
Encode-Decode_Experiment-5-1,150472,decoding,-1.307612,0.0,0.3036,0.232179,-0.973573,0.0,0.1976,0.202964,5,0,0,False,0.6,3.0,0.4,0.483333,5.0,8,8,1.0,0.120395,,,,,,,63136.0,14.0,186.0,,,,,,,,,,,,,,,,,,,,,,,,,,,,,,,,-1.101983490774384,-1.1461797062357841,0.558896443005932,-0.23261697197656783
Encode-Decode_Experiment-5-1,2356991,decoding,-0.758006,0.5,0.69475,0.256924,-1.23395,0.0,0.3345,0.271081,4,2,0,False,1.0,3.0,1.0,0.333333,3.0,13,13,1.0,0.044929,,,,,,,45568.0,16.0,122.0,,,,,,,,,,,,,,,,,,,,,,,,,,,,,,,,-1.35546348036161,-0.11290424546913626,0.558896443005932,-1.0563470493715132
Encode-Decode_Experiment-5-1,2367132,decoding,0.54018,0.285714,0.194143,0.16952,0.033105,0.142857,0.137857,0.151036,7,2,1,False,0.333333,2.0,0.0,1.0,5.0,13,11,0.8462,0.053855,,,,,,,99258.0,17.0,221.0,,,,,,,,,,,,,,,,,,,,,,,,,,,,,,,,-0.12197093606452401,-0.11290424546913626,-0.8559693445836178,-0.9589175490557778
Encode-Decode_Experiment-5-1,2409918,decoding,,0.0,0.0,0.0,,0.0,0.0,0.0,2,0,0,False,0.5,1.0,,,1.0,6,6,1.0,0.109382,,,,,,,32011.0,18.0,100.0,,,,,,,,,,,,,,,,,,,,,,,,,,,,,,,,,-1.5594898905424432,0.558896443005932,-0.352826594089182
Encode-Decode_Experiment-5-1,2348899,decoding,,1.0,1.0,0.0,,1.0,1.0,0.0,2,2,2,False,1.0,2.0,1.0,1.0,2.0,14,14,1.0,0.112024,,,,,,,55689.0,20.0,159.0,,,,,,,,,,,,,,,,,,,,,,,,,,,,,,,,,0.09375084668419331,0.558896443005932,-0.32398850985949645
Encode-Decode_Experiment-5-1,2385550,decoding,1.197008,0.666667,0.314333,0.294345,1.129366,0.666667,0.323667,0.30371,3,2,2,False,0.333333,1.0,-1.0,1.0,2.0,13,13,1.0,0.20224,,,,,,,28094.0,21.0,84.0,,,,,,,,,,,,,,,,,,,,,,,,,,,,,,,,0.9452516944477013,-0.11290424546913626,0.558896443005932,0.6607414700289618
Encode-Decode_Experiment-5-1,2345035,decoding,,0.0,0.0,0.0,,0.0,0.0,0.0,4,0,0,False,1.0,2.0,1.0,1.0,2.0,14,12,0.8571,0.306193,,,,,,,40197.0,22.0,109.0,,,,,,,,,,,,,,,,,,,,,,,,,,,,,,,,,0.09375084668419331,-0.7556960215359838,1.795414206565107
Encode-Decode_Experiment-5-1,2387122,decoding,,1.0,1.0,0.0,,0.0,0.0,0.0,3,3,0,False,1.0,2.0,1.0,1.0,2.0,8,7,0.875,0.151963,,,,,,,76710.0,23.0,169.0,,,,,,,,,,,,,,,,,,,,,,,,,,,,,,,,,-1.1461797062357841,-0.5910269864394104,0.11195556510242959
Encode-Decode_Experiment-5-1,2362704,decoding,-0.178518,0.428571,0.469571,0.229668,0.04825,0.285714,0.276429,0.192448,7,3,2,False,0.333333,2.0,1.0,1.0,2.0,11,9,0.8182,0.1734,,,,,,,33916.0,24.0,114.0,,,,,,,,,,,,,,,,,,,,,,,,,,,,,,,,-0.10722710522578428,-0.5262144297757955,-1.1135521927793737,0.345945728475544
Encode-Decode_Experiment-5-1,2344622,decoding,1.299565,0.75,0.39975,0.269513,0.928952,0.25,0.1005,0.160934,4,3,1,False,0.2,1.0,-1.0,1.0,2.0,13,8,0.6154,0.141791,,,,,,,41848.0,25.0,107.0,,,,,,,,,,,,,,,,,,,,,,,,,,,,,,,,0.7501463716536977,-0.11290424546913626,-2.9791879647114983,0.0009256662438525865
Encode-Decode_Experiment-5-1,2349475,decoding,,0.0,0.0,0.0,,0.0,0.0,0.0,9,0,0,False,0.2,1.0,,,1.0,12,12,1.0,0.040332,,,,,,,68607.0,26.0,166.0,,,,,,,,,,,,,,,,,,,,,,,,,,,,,,,,,-0.31955933762246586,0.558896443005932,-1.1065244427113556
Encode-Decode_Experiment-5-1,2394020,decoding,,1.0,1.0,0.0,,0.0,0.0,0.0,2,2,0,False,1.0,2.0,1.0,1.0,2.0,9,9,1.0,0.170952,,,,,,,42785.0,27.0,102.0,,,,,,,,,,,,,,,,,,,,,,,,,,,,,,,,,-0.9395246140824546,0.558896443005932,0.3192252022854341
Encode-Decode_Experiment-5-1,2385851,decoding,,0.0,0.0,0.0,,0.0,0.0,0.0,3,0,0,False,0.666667,2.0,0.333333,1.0,3.0,8,8,1.0,0.172552,,,,,,,38561.0,29.0,92.0,,,,,,,,,,,,,,,,,,,,,,,,,,,,,,,,,-1.1461797062357841,0.558896443005932,0.33668959848812047
Encode-Decode_Experiment-5-1,2383555,decoding,0.489985,0.25,0.17625,0.150515,-0.729921,0.0,0.076125,0.104292,8,2,0,False,0.375,3.0,0.2,0.816667,5.0,12,12,1.0,0.186184,,,,,,,43155.0,30.0,121.0,,,,,,,,,,,,,,,,,,,,,,,,,,,,,,,,-0.8647854801094378,-0.31955933762246586,0.558896443005932,0.4854862541350062
Encode-Decode_Experiment-6-1,2385851,decoding,0.637801,0.375,0.268,0.167764,0.951833,0.25,0.128,0.128174,8,3,2,False,0.5,3.0,0.2,0.816667,5.0,16,16,1.0,0.18237,,,,,,,47205.0,1.0,55.0,,,,,,,,,,,,,,,,,,,,,,,,,,,,,,,,0.7724212870331103,0.5070610309908524,0.558896443005932,0.4438554996868532
Encode-Decode_Experiment-6-1,2348899,decoding,,1.0,1.0,0.0,,1.0,1.0,0.0,5,5,5,False,1.0,2.0,1.0,1.0,2.0,10,10,1.0,0.189992,,,,,,,43181.0,2.0,114.0,,,,,,,,,,,,,,,,,,,,,,,,,,,,,,,,,-0.732869521929125,0.558896443005932,0.5270515170973993
Encode-Decode_Experiment-6-1,2347025,decoding,,1.0,1.0,0.0,-0.435646,0.5,0.661,0.369566,2,2,1,False,1.0,3.0,1.0,0.333333,3.0,7,6,0.8571,0.102107,,,,,,,33336.0,3.0,83.0,,,,,,,,,,,,,,,,,,,,,,,,,,,,,,,,-0.5783053995501685,-1.3528347983891138,-0.7556960215359838,-0.4322350205732704
Encode-Decode_Experiment-6-1,2379478,decoding,-0.019527,0.333333,0.339333,0.30726,0.030675,0.333333,0.324,0.304269,3,1,1,False,0.333333,1.0,-1.0,1.0,2.0,9,9,1.0,0.731697,,,,,,,35508.0,4.0,100.0,,,,,,,,,,,,,,,,,,,,,,,,,,,,,,,,-0.12433656887655026,-0.9395246140824546,0.558896443005932,6.43989573270746
Encode-Decode_Experiment-6-1,2409918,decoding,-2.025188,0.2,0.6774,0.235731,-1.422227,0.0,0.3316,0.233155,5,1,0,False,1.0,3.0,1.0,0.333333,3.0,15,14,0.9333,0.063637,,,,,,,47029.0,7.0,124.0,,,,,,,,,,,,,,,,,,,,,,,,,,,,,,,,-1.5387532947442706,0.3004059388375229,-0.05470269894610259,-0.8521445967716054
Encode-Decode_Experiment-6-1,2410309,decoding,-0.182893,0.625,0.658875,0.185218,0.202808,0.375,0.335,0.197231,8,5,3,False,0.666667,2.0,0.333333,1.0,3.0,12,12,1.0,0.153749,,,,,,,40828.0,8.0,107.0,,,,,,,,,,,,,,,,,,,,,,,,,,,,,,,,0.0432368767335379,-0.31955933762246586,0.558896443005932,0.1314501973636781
Encode-Decode_Experiment-6-1,2362704,decoding,,0.0,0.0,0.0,,0.0,0.0,0.0,7,0,0,False,0.666667,2.0,1.0,1.0,2.0,12,12,1.0,0.122563,,,,,,,28469.0,9.0,63.0,,,,,,,,,,,,,,,,,,,,,,,,,,,,,,,,,-0.31955933762246586,0.558896443005932,-0.2089527151219281
Encode-Decode_Experiment-6-1,2360001,decoding,1.664121,0.461538,0.250538,0.126794,2.444084,0.384615,0.140231,0.09999,13,6,5,False,0.5,4.0,-0.333333,0.381349,7.0,15,15,1.0,0.25415,,,,,,,44066.0,10.0,85.0,,,,,,,,,,,,,,,,,,,,,,,,,,,,,,,,2.225144714761086,0.3004059388375229,0.558896443005932,1.2273519743298602
Encode-Decode_Experiment-6-1,150472,decoding,0.004845,0.166667,0.165833,0.171996,,0.0,0.0,0.0,6,1,0,False,0.5,2.0,0.0,1.0,4.0,11,11,1.0,0.143513,,,,,,,32969.0,11.0,88.0,,,,,,,,,,,,,,,,,,,,,,,,,,,,,,,,,-0.5262144297757955,0.558896443005932,0.01972172265699356
Encode-Decode_Experiment-6-1,2345035,decoding,-0.662938,0.1,0.1945,0.142547,-0.006514,0.1,0.1007,0.107469,10,1,1,False,0.4,2.0,0.0,1.0,4.0,17,15,0.8824,0.222534,,,,,,,45787.0,13.0,161.0,,,,,,,,,,,,,,,,,,,,,,,,,,,,,,,,-0.16054048601500465,0.7137161231441821,-0.5229515194162465,0.8822555053647821
Encode-Decode_Experiment-6-1,2383555,decoding,-1.159367,0.0,0.196571,0.169551,-0.787815,0.0,0.098286,0.124757,7,0,0,False,0.6,3.0,0.666667,0.333333,4.0,12,12,1.0,0.127221,,,,,,,33645.0,14.0,95.0,,,,,,,,,,,,,,,,,,,,,,,,,,,,,,,,-0.9211459517223791,-0.31955933762246586,0.558896443005932,-0.1581094916768581
Encode-Decode_Experiment-6-1,2408717,decoding,-0.55301,0.4,0.5043,0.188604,-1.363012,0.1,0.3404,0.176374,10,4,1,False,0.5,2.0,-0.333333,1.0,3.0,16,16,1.0,0.187457,,,,,,,32628.0,15.0,83.0,,,,,,,,,,,,,,,,,,,,,,,,,,,,,,,,-1.4811068145121165,0.5070610309908524,0.558896443005932,0.49938136436376857
Encode-Decode_Experiment-6-1,2371471,decoding,1.411844,1.0,0.6666,0.236145,-0.534538,0.2,0.3254,0.234595,5,5,1,False,0.666667,2.0,1.0,1.0,2.0,14,13,0.9286,0.193007,,,,,,,45165.0,16.0,120.0,,,,,,,,,,,,,,,,,,,,,,,,,,,,,,,,-0.6745778933966292,0.09375084668419331,-0.0979398198932478,0.5599609886918361
Encode-Decode_Experiment-6-1,2349475,decoding,,0.0,0.0,0.0,,0.0,0.0,0.0,3,0,0,False,0.333333,1.0,,,1.0,11,11,1.0,0.066824,,,,,,,27434.0,19.0,68.0,,,,,,,,,,,,,,,,,,,,,,,,,,,,,,,,,-0.5262144297757955,0.558896443005932,-0.81735770258538
Encode-Decode_Experiment-6-1,2350974,decoding,0.644475,0.5,0.3315,0.261453,0.672057,0.5,0.3235,0.262627,4,2,2,False,0.666667,2.0,0.333333,1.0,3.0,10,10,1.0,0.296096,,,,,,,47620.0,23.0,77.0,,,,,,,,,,,,,,,,,,,,,,,,,,,,,,,,0.500056148918931,-0.732869521929125,0.558896443005932,1.6852029512785311
Encode-Decode_Experiment-6-1,2397102,decoding,,0.0,0.0,0.0,,0.0,0.0,0.0,2,0,0,False,1.0,2.0,1.0,1.0,2.0,16,16,1.0,0.056933,,,,,,,33845.0,24.0,102.0,,,,,,,,,,,,,,,,,,,,,,,,,,,,,,,,,0.5070610309908524,0.558896443005932,-0.9253204168608604
Encode-Decode_Experiment-6-1,2374670,decoding,,0.0,0.0,0.0,,0.0,0.0,0.0,3,0,0,False,1.0,2.0,1.0,1.0,2.0,14,12,0.8571,0.148711,,,,,,,40420.0,25.0,64.0,,,,,,,,,,,,,,,,,,,,,,,,,,,,,,,,,0.09375084668419331,-0.7556960215359838,0.07645917982047025
Encode-Decode_Experiment-6-1,2387122,decoding,,1.0,1.0,0.0,,0.0,0.0,0.0,3,3,0,False,0.5,1.0,-1.0,1.0,2.0,9,7,0.7778,0.113202,,,,,,,54180.0,26.0,134.0,,,,,,,,,,,,,,,,,,,,,,,,,,,,,,,,,-0.9395246140824546,-1.4852074451761084,-0.3111303481552688
Encode-Decode_Experiment-6-1,2385550,decoding,,1.0,1.0,0.0,-0.645224,0.5,0.674,0.269674,4,4,2,False,0.333333,1.0,,,1.0,11,11,1.0,0.211528,,,,,,,45975.0,27.0,113.0,,,,,,,,,,,,,,,,,,,,,,,,,,,,,,,,-0.7823319812287023,-0.5262144297757955,0.558896443005932,0.7621222899855548
Encode-Decode_Experiment-6-1,2386442,decoding,0.727411,0.666667,0.497167,0.233018,0.989571,0.5,0.295667,0.206487,6,4,3,False,0.6,3.0,1.0,0.333333,3.0,16,16,1.0,0.073559,,,,,,,35751.0,29.0,102.0,,,,,,,,,,,,,,,,,,,,,,,,,,,,,,,,0.8091596619550224,0.5070610309908524,0.558896443005932,-0.7438435098196979
Encode-Decode_Experiment-6-1,2356991,decoding,,0.0,0.0,0.0,,0.0,0.0,0.0,2,0,0,False,1.0,2.0,1.0,1.0,2.0,10,10,1.0,0.094366,,,,,,,49578.0,30.0,96.0,,,,,,,,,,,,,,,,,,,,,,,,,,,,,,,,,-0.732869521929125,0.558896443005932,-0.5167299524513913
Encode-Decode_Experiment-7-1,2347400,decoding,-0.537993,0.076923,0.134154,0.106378,-0.499543,0.076923,0.129,0.104249,13,1,1,False,0.333333,2.0,1.0,1.0,2.0,22,21,0.9545,0.124912,,,,,,,33698.0,1.0,39.0,,,,,,,,,,,,,,,,,,,,,,,,,,,,,,,,-0.6405098603691155,1.7469915839108299,0.14032431468782747,-0.1833127984468596
Encode-Decode_Experiment-7-1,2410309,decoding,,0.0,0.0,0.0,,0.0,0.0,0.0,2,0,0,False,0.0,0.0,,,0.0,15,15,1.0,0.123614,,,,,,,28624.0,2.0,75.0,,,,,,,,,,,,,,,,,,,,,,,,,,,,,,,,,0.3004059388375229,0.558896443005932,-0.19748078986628867
Encode-Decode_Experiment-7-1,2370664,decoding,,0.0,0.0,0.0,,0.0,0.0,0.0,2,0,0,False,0.5,1.0,,,1.0,8,8,1.0,0.155909,,,,,,,18695.0,3.0,30.0,,,,,,,,,,,,,,,,,,,,,,,,,,,,,,,,,-1.1461797062357841,0.558896443005932,0.15502713223730435
Encode-Decode_Experiment-7-1,2345035,decoding,0.923372,0.384615,0.258538,0.13654,0.132466,0.076923,0.067,0.074911,13,5,1,False,0.5,4.0,0.6,0.136111,6.0,17,16,0.9412,0.257736,,,,,,,10709.0,4.0,27.0,,,,,,,,,,,,,,,,,,,,,,,,,,,,,,,,-0.02524186535022768,0.7137161231441821,0.017972461794843218,1.2664940523191308
Encode-Decode_Experiment-7-1,2349475,decoding,-0.827606,0.0,0.16725,0.202089,,0.0,0.0,0.0,4,0,0,False,0.75,3.0,1.0,0.333333,3.0,9,9,1.0,0.081452,,,,,,,25719.0,6.0,66.0,,,,,,,,,,,,,,,,,,,,,,,,,,,,,,,,,-0.9395246140824546,0.558896443005932,-0.6576894603023219
Encode-Decode_Experiment-7-1,2374670,decoding,-0.550838,0.4,0.5078,0.195702,0.013212,0.4,0.3977,0.174082,10,4,4,False,0.6,3.0,0.0,1.0,5.0,13,13,1.0,0.202547,,,,,,,26485.0,7.0,41.0,,,,,,,,,,,,,,,,,,,,,,,,,,,,,,,,-0.14133699924544507,-0.11290424546913626,0.558896443005932,0.6640924510503522
Encode-Decode_Experiment-7-1,2371471,decoding,2.062537,0.888889,0.502444,0.187364,2.302602,0.777778,0.395889,0.165851,9,8,7,False,0.4,2.0,-0.333333,1.0,3.0,15,13,0.8667,0.179959,,,,,,,34403.0,8.0,79.0,,,,,,,,,,,,,,,,,,,,,,,,,,,,,,,,2.0874103684602225,0.3004059388375229,-0.6673819021545809,0.4175388376589306
Encode-Decode_Experiment-7-1,2348899,decoding,-0.025828,0.333333,0.341333,0.309735,,0.0,0.0,0.0,3,1,0,False,0.666667,2.0,1.0,1.0,2.0,11,11,1.0,0.132255,,,,,,,48403.0,9.0,137.0,,,,,,,,,,,,,,,,,,,,,,,,,,,,,,,,,-0.5262144297757955,0.558896443005932,-0.1031621351241567
Encode-Decode_Experiment-7-1,2369373,decoding,1.498476,1.0,0.669167,0.22078,,0.0,0.0,0.0,6,6,0,False,0.666667,2.0,0.333333,1.0,3.0,11,11,1.0,0.209851,,,,,,,46020.0,10.0,56.0,,,,,,,,,,,,,,,,,,,,,,,,,,,,,,,,,-0.5262144297757955,0.558896443005932,0.7438174197156144
Encode-Decode_Experiment-7-1,2344622,decoding,-0.780845,0.5,0.669667,0.217286,,0.0,0.0,0.0,6,3,0,False,1.0,3.0,1.0,0.333333,3.0,11,10,0.9091,0.122471,,,,,,,39146.0,11.0,90.0,,,,,,,,,,,,,,,,,,,,,,,,,,,,,,,,,-0.5262144297757955,-0.2773278748867209,-0.20995691790358262
Encode-Decode_Experiment-7-1,2385851,decoding,,0.0,0.0,0.0,,0.0,0.0,0.0,4,0,0,False,0.25,1.0,-1.0,0.333333,3.0,6,6,1.0,0.229958,,,,,,,40933.0,12.0,56.0,,,,,,,,,,,,,,,,,,,,,,,,,,,,,,,,,-1.5594898905424432,0.558896443005932,0.9632903037452457
Encode-Decode_Experiment-7-1,2383555,decoding,-0.793201,0.0,0.1595,0.201084,,0.0,0.0,0.0,4,0,0,False,0.5,2.0,1.0,1.0,2.0,6,6,1.0,0.178851,,,,,,,48666.0,13.0,115.0,,,,,,,,,,,,,,,,,,,,,,,,,,,,,,,,,-1.5594898905424432,0.558896443005932,0.40544474328857044
Encode-Decode_Experiment-7-1,2385550,decoding,-0.007466,0.333333,0.335667,0.312508,0.762362,0.333333,0.160667,0.226489,3,1,1,False,0.5,2.0,0.333333,1.0,3.0,5,5,1.0,0.249387,,,,,,,49032.0,14.0,132.0,,,,,,,,,,,,,,,,,,,,,,,,,,,,,,,,0.5879690999847871,-1.766144982695773,0.558896443005932,1.1753626498839889
Encode-Decode_Experiment-7-1,2362704,decoding,,0.0,0.0,0.0,,0.0,0.0,0.0,4,0,0,False,0.5,2.0,1.0,1.0,2.0,12,10,0.8333,0.193286,,,,,,,14393.0,15.0,24.0,,,,,,,,,,,,,,,,,,,,,,,,,,,,,,,,,-0.31955933762246586,-0.9746414425023764,0.5630063427796795
Encode-Decode_Experiment-7-1,2347025,decoding,,1.0,1.0,0.0,-0.459827,0.5,0.672,0.374053,2,2,1,False,0.666667,2.0,-0.333333,1.0,3.0,4,3,0.75,0.1221,,,,,,,54514.0,16.0,89.0,,,,,,,,,,,,,,,,,,,,,,,,,,,,,,,,-0.6018458798084428,-1.9728000748491026,-1.7409504158847529,-0.21400647477308044
Encode-Decode_Experiment-7-1,2386442,decoding,,0.0,0.0,0.0,,0.0,0.0,0.0,2,0,0,False,1.0,2.0,1.0,1.0,2.0,4,4,1.0,0.066974,,,,,,,54175.0,17.0,168.0,,,,,,,,,,,,,,,,,,,,,,,,,,,,,,,,,-1.9728000748491026,0.558896443005932,-0.8157204154413781
Encode-Decode_Experiment-7-1,2360001,decoding,0.331708,0.375,0.31125,0.192187,0.297059,0.25,0.202125,0.161163,8,3,2,False,0.6,3.0,0.333333,0.75,4.0,12,12,1.0,0.117727,,,,,,,22218.0,18.0,65.0,,,,,,,,,,,,,,,,,,,,,,,,,,,,,,,,0.13499130396246217,-0.31955933762246586,0.558896443005932,-0.261738852644547
Encode-Decode_Experiment-7-1,2394020,decoding,0.076489,0.5,0.4795,0.268011,-0.790641,0.0,0.16225,0.205213,4,2,0,False,0.5,2.0,1.0,1.0,2.0,5,5,1.0,0.329782,,,,,,,31459.0,19.0,61.0,,,,,,,,,,,,,,,,,,,,,,,,,,,,,,,,-0.9238970950667356,-1.766144982695773,0.558896443005932,2.0528939828308346
Encode-Decode_Experiment-7-1,2397102,decoding,0.012053,0.333333,0.329667,0.304207,,0.0,0.0,0.0,3,1,0,False,0.666667,2.0,-0.333333,1.0,3.0,4,4,1.0,0.053164,,,,,,,32754.0,20.0,95.0,,,,,,,,,,,,,,,,,,,,,,,,,,,,,,,,,-1.9728000748491026,0.558896443005932,-0.9664599851658129
Encode-Decode_Experiment-7-1,2387122,decoding,0.004738,0.6,0.5988,0.253295,-0.429208,0.2,0.302,0.237647,5,3,1,False,0.6,3.0,0.0,1.0,4.0,9,7,0.7778,0.092788,,,,,,,45133.0,21.0,124.0,,,,,,,,,,,,,,,,,,,,,,,,,,,,,,,,-0.5720379328654668,-0.9395246140824546,-1.4852074451761084,-0.5339542132062907
Encode-Decode_Experiment-7-1,2379478,decoding,-0.828673,0.0,0.17525,0.211483,,0.0,0.0,0.0,4,0,0,False,0.25,1.0,,,1.0,5,5,1.0,0.47059,,,,,,,20090.0,22.0,0.0,,,,,,,,,,,,,,,,,,,,,,,,,,,,,,,,,-1.766144982695773,0.558896443005932,3.5898481706482284
Encode-Decode_Experiment-7-1,2408717,decoding,,0.0,0.0,0.0,,0.0,0.0,0.0,2,0,0,False,1.0,2.0,1.0,1.0,2.0,10,9,0.9,0.098073,,,,,,,29424.0,23.0,81.0,,,,,,,,,,,,,,,,,,,,,,,,,,,,,,,,,-0.732869521929125,-0.3610423005503418,-0.47626712949929295
Encode-Decode_Experiment-7-1,2409918,decoding,1.925675,0.8,0.3342,0.241889,1.275686,0.4,0.165,0.184215,5,4,2,False,0.75,3.0,0.333333,0.75,4.0,7,7,1.0,0.095537,,,,,,,68377.0,24.0,94.0,,,,,,,,,,,,,,,,,,,,,,,,,,,,,,,,1.087695889120821,-1.3528347983891138,0.558896443005932,-0.5039481974805504
Encode-Decode_Experiment-7-1,2350974,decoding,0.012471,0.5,0.49625,0.300705,0.011031,0.5,0.49675,0.294622,4,2,2,False,0.75,3.0,0.666667,0.333333,4.0,10,10,1.0,0.140316,,,,,,,31058.0,26.0,1.0,,,,,,,,,,,,,,,,,,,,,,,,,,,,,,,,-0.14346022770759703,-0.732869521929125,0.558896443005932,-0.015174324005498745
Encode-Decode_Experiment-7-1,2356125,decoding,-0.696795,0.0,0.156333,0.224361,,0.0,0.0,0.0,3,0,0,False,0.5,2.0,0.333333,1.0,3.0,7,7,1.0,0.111202,,,,,,,8730.0,27.0,0.0,,,,,,,,,,,,,,,,,,,,,,,,,,,,,,,,,-1.3528347983891138,0.558896443005932,-0.3329608434086265
Encode-Decode_Experiment-7-1,2411268,decoding,,0.0,0.0,0.0,,0.0,0.0,0.0,5,0,0,False,0.5,1.0,,,1.0,10,10,1.0,0.068153,,,,,,,59774.0,28.0,119.0,,,,,,,,,,,,,,,,,,,,,,,,,,,,,,,,,-0.732869521929125,0.558896443005932,-0.8028513384895237
Encode-Decode_Experiment-7-1,2367132,decoding,,0.0,0.0,0.0,,0.0,0.0,0.0,3,0,0,False,0.666667,2.0,1.0,1.0,2.0,11,11,1.0,0.046373,,,,,,,46137.0,29.0,115.0,,,,,,,,,,,,,,,,,,,,,,,,,,,,,,,,,-0.5262144297757955,0.558896443005932,-1.040585431798589
Encode-Decode_Experiment-8-1,2411268,decoding,-0.824366,0.222222,0.396667,0.211611,-0.61717,0.111111,0.208111,0.157169,9,2,1,False,0.6,3.0,0.666667,0.333333,4.0,19,19,1.0,0.081119,,,,,,,17815.0,1.0,14.0,,,,,,,,,,,,,,,,,,,,,,,,,,,,,,,,-0.7550210911428651,1.1270263074508413,0.558896443005932,-0.661324237762006
Encode-Decode_Experiment-8-1,2347025,decoding,0.114689,0.833333,0.815,0.159852,-0.001368,0.5,0.500333,0.243584,6,5,3,False,0.6,3.0,0.4,0.483333,5.0,12,12,1.0,0.098938,,,,,,,29129.0,2.0,87.0,,,,,,,,,,,,,,,,,,,,,,,,,,,,,,,,-0.15553079611760257,-0.31955933762246586,0.558896443005932,-0.46682544030221573
Encode-Decode_Experiment-8-1,2362704,decoding,,0.0,0.0,0.0,,0.0,0.0,0.0,3,0,0,False,0.25,1.0,-1.0,1.0,2.0,10,6,0.6,0.065629,,,,,,,27525.0,3.0,73.0,,,,,,,,,,,,,,,,,,,,,,,,,,,,,,,,,-0.732869521929125,-3.120858531219164,-0.830401423499261
Encode-Decode_Experiment-8-1,2379478,decoding,-0.423969,0.5,0.6565,0.369131,,0.0,0.0,0.0,2,1,0,False,0.333333,1.0,,,1.0,10,4,0.4,0.165363,,,,,,,18026.0,4.0,40.0,,,,,,,,,,,,,,,,,,,,,,,,,,,,,,,,,-0.732869521929125,-4.960736018331712,0.2582198832999263
Encode-Decode_Experiment-8-1,2350974,decoding,0.04303,0.333333,0.320333,0.302118,-0.032254,0.333333,0.343333,0.310036,3,1,1,False,0.5,2.0,-0.666667,0.333333,4.0,8,8,1.0,0.067282,,,,,,,27851.0,5.0,77.0,,,,,,,,,,,,,,,,,,,,,,,,,,,,,,,,-0.18559867061646787,-1.1461797062357841,0.558896443005932,-0.8123585191723611
Encode-Decode_Experiment-8-1,2356991,decoding,0.832764,0.5,0.296,0.244967,,0.0,0.0,0.0,4,2,0,False,0.6,3.0,0.0,1.0,4.0,5,5,1.0,0.050667,,,,,,,40546.0,6.0,132.0,,,,,,,,,,,,,,,,,,,,,,,,,,,,,,,,,-1.766144982695773,0.558896443005932,-0.9937153584896301
Encode-Decode_Experiment-8-1,2374670,decoding,0.345381,0.4,0.3178,0.237998,0.295135,0.4,0.3292,0.23989,5,2,2,False,1.0,3.0,1.0,0.333333,3.0,8,8,1.0,0.162787,,,,,,,19094.0,7.0,54.0,,,,,,,,,,,,,,,,,,,,,,,,,,,,,,,,0.13311826794174672,-1.1461797062357841,0.558896443005932,0.23010220541360135
Encode-Decode_Experiment-8-1,2347400,decoding,1.437579,0.444444,0.216667,0.158445,1.022601,0.333333,0.181667,0.148315,9,4,3,False,0.375,3.0,-0.066667,1.0,6.0,15,15,1.0,0.081354,,,,,,,18373.0,8.0,41.0,,,,,,,,,,,,,,,,,,,,,,,,,,,,,,,,0.8413147449925645,0.3004059388375229,0.558896443005932,-0.6587591545697364
Encode-Decode_Experiment-8-1,2345035,decoding,,0.0,0.0,0.0,,0.0,0.0,0.0,2,0,0,False,0.666667,2.0,0.333333,1.0,3.0,5,3,0.6,0.095865,,,,,,,35215.0,9.0,102.0,,,,,,,,,,,,,,,,,,,,,,,,,,,,,,,,,-1.766144982695773,-3.120858531219164,-0.5003679962589997
Encode-Decode_Experiment-8-1,2387122,decoding,-0.471989,0.5,0.671,0.362297,,0.0,0.0,0.0,2,1,0,False,0.333333,1.0,-1.0,0.333333,3.0,7,3,0.4286,0.104128,,,,,,,18877.0,10.0,73.0,,,,,,,,,,,,,,,,,,,,,,,,,,,,,,,,,-1.3528347983891138,-4.697633537674617,-0.41017530511975253
Encode-Decode_Experiment-8-1,2369373,decoding,1.310598,0.75,0.39175,0.273349,,0.0,0.0,0.0,4,3,0,False,0.6,3.0,0.333333,0.75,4.0,11,11,1.0,0.228784,,,,,,,8036.0,11.0,0.0,,,,,,,,,,,,,,,,,,,,,,,,,,,,,,,,,-0.5262144297757955,0.558896443005932,0.9504758030315247
Encode-Decode_Experiment-8-1,2344622,decoding,-1.006592,0.0,0.203,0.201671,-0.646995,0.0,0.0982,0.151779,5,0,0,False,0.4,2.0,0.0,1.0,4.0,9,8,0.8889,0.114116,,,,,,,14117.0,12.0,51.0,,,,,,,,,,,,,,,,,,,,,,,,,,,,,,,,-0.78405606999829,-0.9395246140824546,-0.4631555010850882,-0.30115381182448436
Encode-Decode_Experiment-8-1,2410309,decoding,0.271854,0.75,0.6765,0.270366,-0.29776,0.25,0.3275,0.260276,4,3,1,False,1.0,3.0,1.0,0.333333,3.0,8,8,1.0,0.133387,,,,,,,30156.0,14.0,58.0,,,,,,,,,,,,,,,,,,,,,,,,,,,,,,,,-0.44407180040652594,-1.1461797062357841,0.558896443005932,-0.09080607481075632
Encode-Decode_Experiment-8-1,2397102,decoding,,0.0,0.0,0.0,,0.0,0.0,0.0,3,0,0,False,0.666667,2.0,1.0,1.0,2.0,9,9,1.0,0.048791,,,,,,,23536.0,16.0,76.0,,,,,,,,,,,,,,,,,,,,,,,,,,,,,,,,,-0.9395246140824546,0.558896443005932,-1.0141923630372793
Encode-Decode_Experiment-8-1,2367132,decoding,-0.667473,0.0,0.099,0.148321,,0.0,0.0,0.0,5,0,0,False,0.4,2.0,-0.333333,1.0,3.0,17,16,0.9412,0.044989,,,,,,,22516.0,17.0,65.0,,,,,,,,,,,,,,,,,,,,,,,,,,,,,,,,,0.7137161231441821,0.017972461794843218,-1.0556921345139123
Encode-Decode_Experiment-8-1,2385550,decoding,0.54853,0.166667,0.095333,0.130044,,0.0,0.0,0.0,6,1,0,False,0.6,3.0,1.0,0.333333,3.0,13,8,0.6154,0.257258,,,,,,,17130.0,18.0,56.0,,,,,,,,,,,,,,,,,,,,,,,,,,,,,,,,,-0.11290424546913626,-2.9791879647114983,1.261276563953578
Encode-Decode_Experiment-8-1,2412687,decoding,0.051169,0.5,0.48525,0.288262,0.243306,0.25,0.195,0.226053,4,2,1,False,0.4,2.0,0.333333,1.0,3.0,17,17,1.0,0.051626,,,,,,,21862.0,19.0,84.0,,,,,,,,,,,,,,,,,,,,,,,,,,,,,,,,0.08266214324441816,0.7137161231441821,0.558896443005932,-0.9832476360156449
Encode-Decode_Experiment-8-1,2409918,decoding,-1.422082,0.0,0.3334,0.234445,,0.0,0.0,0.0,5,0,0,False,0.75,3.0,0.333333,0.75,4.0,14,14,1.0,0.051935,,,,,,,40278.0,20.0,51.0,,,,,,,,,,,,,,,,,,,,,,,,,,,,,,,,,0.09375084668419331,0.558896443005932,-0.9798748244990011
Encode-Decode_Experiment-8-1,2408717,decoding,,1.0,1.0,0.0,,0.0,0.0,0.0,4,4,0,False,0.333333,1.0,,,1.0,15,15,1.0,0.080718,,,,,,,25132.0,21.0,85.0,,,,,,,,,,,,,,,,,,,,,,,,,,,,,,,,,0.3004059388375229,0.558896443005932,-0.6657012520603042
Encode-Decode_Experiment-8-1,2348899,decoding,-0.342669,0.142857,0.206286,0.185101,-0.796273,0.0,0.102857,0.129173,7,1,0,False,0.4,2.0,1.0,1.0,2.0,15,14,0.9333,0.079226,,,,,,,34329.0,22.0,126.0,,,,,,,,,,,,,,,,,,,,,,,,,,,,,,,,-0.9293799115265429,0.3004059388375229,-0.05470269894610259,-0.6819868015193089
Encode-Decode_Experiment-8-1,2386442,decoding,-0.800303,0.0,0.135,0.168686,-0.75826,0.0,0.1316,0.173555,5,0,0,False,0.333333,2.0,0.0,1.0,4.0,10,10,1.0,0.04922,,,,,,,30541.0,23.0,92.0,,,,,,,,,,,,,,,,,,,,,,,,,,,,,,,,-0.8923738209571792,-0.732869521929125,0.558896443005932,-1.0095097218054343
Encode-Decode_Experiment-8-1,2371471,decoding,1.193143,1.0,0.6745,0.272809,0.638368,0.5,0.3335,0.260821,4,4,2,False,0.666667,2.0,1.0,1.0,2.0,13,10,0.7692,0.158863,,,,,,,30137.0,24.0,112.0,,,,,,,,,,,,,,,,,,,,,,,,,,,,,,,,0.46725952183895064,-0.11290424546913626,-1.5643221771219484,0.18727077372651377
Encode-Decode_Experiment-8-1,2360001,decoding,0.677443,0.222222,0.135222,0.128424,1.50134,0.222222,0.074667,0.098283,9,2,2,False,0.375,3.0,-0.066667,1.0,6.0,14,12,0.8571,0.211829,,,,,,,21461.0,25.0,78.0,,,,,,,,,,,,,,,,,,,,,,,,,,,,,,,,1.3073726407936483,0.09375084668419331,-0.7556960215359838,0.765407779521185
Encode-Decode_Experiment-8-1,2356125,decoding,,0.0,0.0,0.0,,0.0,0.0,0.0,3,0,0,False,0.666667,2.0,1.0,1.0,2.0,13,9,0.6923,0.067349,,,,,,,33265.0,27.0,95.0,,,,,,,,,,,,,,,,,,,,,,,,,,,,,,,,,-0.11290424546913626,-2.271755070916723,-0.8116271975813735
Encode-Decode_Experiment-8-1,150472,decoding,0.913255,0.25,0.10025,0.163974,0.883508,0.25,0.10075,0.168929,4,1,1,False,0.2,1.0,,,1.0,9,9,1.0,0.114286,,,,,,,21360.0,28.0,85.0,,,,,,,,,,,,,,,,,,,,,,,,,,,,,,,,0.705906117534471,-0.9395246140824546,0.558896443005932,-0.2992982197279489
Encode-Decode_Experiment-8-1,2349475,decoding,1.420862,0.285714,0.099857,0.130806,1.147337,0.142857,0.046714,0.083797,7,2,1,False,0.428571,3.0,1.0,0.333333,3.0,10,9,0.9,0.138148,,,,,,,17695.0,30.0,48.0,,,,,,,,,,,,,,,,,,,,,,,,,,,,,,,,0.9627466686307975,-0.732869521929125,-0.3610423005503418,-0.03883858086013851
Encode-Decode_Experiment-9-1,2383555,decoding,-0.512508,0.090909,0.150636,0.116539,-0.512152,0.090909,0.151545,0.118395,11,1,1,False,0.5,4.0,0.047619,1.0,7.0,19,19,1.0,0.169818,,,,,,,51644.0,2.0,244.0,,,,,,,,,,,,,,,,,,,,,,,,,,,,,,,,-0.6527848661826294,1.1270263074508413,0.558896443005932,0.30684731147678035
Encode-Decode_Experiment-9-1,2412687,decoding,,0.0,0.0,0.0,,0.0,0.0,0.0,2,0,0,False,0.5,1.0,,,1.0,19,19,1.0,0.023774,,,,,,,63611.0,3.0,197.0,,,,,,,,,,,,,,,,,,,,,,,,,,,,,,,,,1.1270263074508413,0.558896443005932,-1.287259112913904
Encode-Decode_Experiment-9-1,150472,decoding,1.540368,0.888889,0.592111,0.192667,0.124246,0.222222,0.203111,0.153816,9,8,2,False,0.6,3.0,0.333333,0.75,4.0,22,21,0.9545,0.09138,,,,,,,33357.0,4.0,126.0,,,,,,,,,,,,,,,,,,,,,,,,,,,,,,,,-0.03324412943041524,1.7469915839108299,0.14032431468782747,-0.5493228818646544
Encode-Decode_Experiment-9-1,2356125,decoding,,1.0,1.0,0.0,-1.082983,0.125,0.3315,0.190677,8,8,1,False,0.333333,1.0,-1.0,1.0,2.0,16,13,0.8125,0.084981,,,,,,,83719.0,5.0,325.0,,,,,,,,,,,,,,,,,,,,,,,,,,,,,,,,-1.2084953780022818,0.5070610309908524,-1.1659887011620818,-0.6191695514277723
Encode-Decode_Experiment-9-1,2360001,decoding,-0.929238,0.083333,0.20125,0.126896,,0.0,0.0,0.0,12,1,0,False,0.2,1.0,-1.0,0.333333,3.0,18,18,1.0,0.251854,,,,,,,40252.0,6.0,94.0,,,,,,,,,,,,,,,,,,,,,,,,,,,,,,,,,0.9203712152975116,0.558896443005932,1.202290565779006
Encode-Decode_Experiment-9-1,2394020,decoding,-0.002349,0.714286,0.714714,0.182443,-0.792538,0.142857,0.307143,0.207291,7,5,1,False,0.4,2.0,-0.2,0.816667,5.0,19,19,1.0,0.220251,,,,,,,50755.0,7.0,162.0,,,,,,,,,,,,,,,,,,,,,,,,,,,,,,,,-0.9257438462784284,1.1270263074508413,0.558896443005932,0.8573359950330743
Encode-Decode_Experiment-9-1,2348899,decoding,3.104365,0.727273,0.263273,0.149467,1.829715,0.454545,0.204182,0.136832,11,8,5,False,0.4,2.0,-0.333333,1.0,3.0,20,19,0.95,0.200948,,,,,,,88949.0,8.0,397.0,,,,,,,,,,,,,,,,,,,,,,,,,,,,,,,,1.6270494616369073,1.3336813996041708,0.09892707122779458,0.6466389700952925
Encode-Decode_Experiment-9-1,2411268,decoding,,0.0,0.0,0.0,,0.0,0.0,0.0,4,0,0,False,0.666667,2.0,0.333333,1.0,3.0,8,7,0.875,0.079061,,,,,,,54423.0,9.0,194.0,,,,,,,,,,,,,,,,,,,,,,,,,,,,,,,,,-1.1461797062357841,-0.5910269864394104,-0.6837878173777109
Encode-Decode_Experiment-9-1,2408717,decoding,1.625068,0.4375,0.25,0.11538,-0.420958,0.125,0.166187,0.097842,16,7,2,False,0.222222,2.0,-0.333333,0.75,4.0,20,20,1.0,0.303272,,,,,,,83009.0,10.0,279.0,,,,,,,,,,,,,,,,,,,,,,,,,,,,,,,,-0.564006463441921,1.3336813996041708,0.558896443005932,1.763530768247578
Encode-Decode_Experiment-9-1,2409918,decoding,0.308519,0.230769,0.192385,0.124416,0.179792,0.230769,0.207923,0.12707,13,3,3,False,0.25,1.0,-1.0,1.0,2.0,21,21,1.0,0.0907,,,,,,,50701.0,11.0,154.0,,,,,,,,,,,,,,,,,,,,,,,,,,,,,,,,0.020830537309012753,1.5403364917575004,0.558896443005932,-0.5567452502507959
Encode-Decode_Experiment-9-1,2347025,decoding,,1.0,1.0,0.0,,0.0,0.0,0.0,5,5,0,False,1.0,2.0,1.0,1.0,2.0,17,15,0.8824,0.068684,,,,,,,38328.0,12.0,134.0,,,,,,,,,,,,,,,,,,,,,,,,,,,,,,,,,0.7137161231441821,-0.5229515194162465,-0.7970553419997574
Encode-Decode_Experiment-9-1,2356991,decoding,-0.020004,0.333333,0.339333,0.29994,,0.0,0.0,0.0,3,1,0,False,0.333333,1.0,-1.0,1.0,2.0,12,12,1.0,0.019098,,,,,,,55140.0,13.0,135.0,,,,,,,,,,,,,,,,,,,,,,,,,,,,,,,,,-0.31955933762246586,0.558896443005932,-1.3382988108162541
