SubjectID,StimID,Phase,svg_z_enc,svg_obs,svg_null_mean,svg_null_std,n_transitions,n_relational,low_n_enc,mean_salience_relational_enc,mean_salience_nonrelational,n_relational_fixations,n_nonrelational_fixations,n_fixations_enc,n_aoi,aoi_prop_enc,mean_salience_enc,enc_q1_accuracy,enc_q1_rt_ms,enc_q1_response,enc_q1_correct_key,enc_q1_question,enc_q2_accuracy,enc_q2_rt_ms,enc_q2_response,enc_q2_correct_key,enc_q2_question,enc_trial_index,enc_total_correct,dec_free_response,dec_rt_ms,dec_trial_index,dec_cue_question,prop_total,prop_relations,prop_objects,n_total_recalled,n_relations_recalled,n_objects_recalled,svg_z_enc_image_mean,svg_z_enc_within,svg_z_enc_z,svg_z_enc_within_z,n_fixations_enc_z,aoi_prop_enc_z,mean_salience_relational_enc_z,enc_total_correct_z,svg_z_enc_image_mean_z
Encode-Decode_Experiment-1-1,2371471,encoding,2.189755,0.6,0.36176,0.108798,25,15,False,0.319333,0.381878,29,5,34,34,1.0,0.32853,1.0,7851.0,3.0,3.0,What is nearest to the motorcyclists?,1.0,12421.0,2.0,2.0,What stunt is one motorcyclist performing?,1.0,2.0,,,,,0.15,0.1,0.2,3.0,1.0,2.0,1.6745751666666666,0.5151798333333333,0.6085362816209724,0.45440385836297387,-0.015355462362247916,1.0081877715287586,1.5029372339687306,0.538382364535243,0.4062234120126392
Encode-Decode_Experiment-1-1,2387122,encoding,-0.330065,0.347826,0.387522,0.120266,23,8,False,0.316857,0.346243,16,13,33,29,0.8788,0.308556,1.0,7463.0,1.0,1.0,What is the polar bear doing next to the enclosure edge?,1.0,5668.0,3.0,3.0,Where is the polar bear located in the scene?,2.0,2.0,,,,,0.5238095238095238,0.25,0.6153846153846154,11.0,2.0,8.0,0.8190727894736842,-1.1491377894736843,-1.1390978346885117,-1.0135735359611469,-0.2015812825001461,-0.33270602121387177,1.4739832988004435,0.538382364535243,-0.5548512259865765
Encode-Decode_Experiment-1-1,2374670,encoding,-0.476733,0.3,0.35995,0.125752,20,6,False,0.196744,0.192463,22,14,39,36,0.9231,0.212175,0.0,6044.0,4.0,1.0,What vehicle sprays water in the scene?,1.0,9310.0,3.0,3.0,Where is the man standing relative to the vehicle?,3.0,1.0,,,,,0.29411764705882354,0.2857142857142857,0.2727272727272727,5.0,2.0,3.0,1.2780294736842106,-1.7547624736842107,-1.24082018016195,-1.5477524292701579,0.915773638327243,0.15740614890575316,0.06940170959669373,-1.6380569814582917,-0.0392575340295389
Encode-Decode_Experiment-1-1,2356991,encoding,2.017518,0.321429,0.158786,0.080615,28,9,False,0.148569,0.176891,13,20,37,33,0.8919,0.161358,1.0,10953.0,1.0,1.0,How is the player on the left (from your perspective) reaching the base?,1.0,6687.0,2.0,2.0,What is the current action of the gloved player on the base?,4.0,2.0,,,,,0.75,0.5555555555555556,0.5555555555555556,12.0,5.0,5.0,0.8878508947368422,1.1296671052631577,0.48908042473802177,0.9963998163048773,0.5433219980514467,-0.18777443140423103,-0.4939487858525136,0.538382364535243,-0.47758563984648034
Encode-Decode_Experiment-1-1,2412687,encoding,2.830765,0.666667,0.3048,0.127834,15,10,False,0.144164,0.08408,17,9,29,26,0.8966,0.127853,1.0,9147.0,3.0,3.0,What is the human's body position?,1.0,5930.0,4.0,4.0,What is the dog biting onto in the scene?,5.0,2.0,,,,,0.4117647058823529,0.4,0.4,7.0,2.0,4.0,1.3483974210526317,1.4823675789473683,1.0531120627861121,1.3074920713172282,-0.9464845630517388,-0.13577607475497142,-0.5454601285085338,0.538382364535243,0.03979408680376899
Encode-Decode_Experiment-1-1,2360001,encoding,-0.770094,0.041667,0.092708,0.06628,24,1,False,0.315042,0.283575,2,35,38,37,0.9737,0.279301,1.0,11249.0,4.0,4.0,What are the workers doing to the clock?,1.0,4944.0,4.0,4.0,Where are the men standing?,6.0,2.0,,,,,0.5,0.75,0.375,6.0,3.0,3.0,1.1830057368421052,-1.953099736842105,-1.4442822099873607,-1.7226917646338282,0.7295478181893448,0.717218243895663,1.4527589884892798,0.538382364535243,-0.14600756292660452
Encode-Decode_Experiment-1-1,2397102,encoding,3.190341,0.571429,0.227286,0.10787,21,12,False,0.137035,0.164877,24,11,35,35,1.0,0.145785,1.0,4439.0,1.0,1.0,What are the couple doing with the cake?,1.0,4350.0,3.0,3.0,What is the man holding besides the cake knife?,7.0,2.0,,,,,0.42857142857142855,0.5,0.3333333333333333,9.0,3.0,6.0,2.2877332105263157,0.9026077894736844,1.3024978462968784,0.7961267805681776,0.17087035777565027,1.0081877715287586,-0.6288254773836225,0.538382364535243,1.0950475003480344
Encode-Decode_Experiment-1-1,150472,encoding,1.668758,0.35,0.19075,0.09543,20,7,False,0.0896,0.086865,13,17,30,30,1.0,0.08805,1.0,3118.0,4.0,4.0,How many women are in the scene?,1.0,3643.0,2.0,2.0,Where is the pizza slice located?,8.0,2.0,,,,,0.6111111111111112,0.5,0.6,11.0,3.0,6.0,0.9545323684210526,0.7142256315789474,0.24719613363623846,0.629968142641205,-0.7602587429138407,1.0081877715287586,-1.1835225350200138,0.538382364535243,-0.40267541762993775
Encode-Decode_Experiment-1-1,2379478,encoding,3.182431,0.866667,0.396667,0.147686,15,13,False,0.395444,,34,0,35,34,0.9714,0.406243,1.0,4689.0,4.0,4.0,What is the position of the babies?,1.0,2082.0,2.0,2.0,How many babies are visible in the scene?,9.0,2.0,,,,,0.7272727272727273,0.6,0.625,8.0,3.0,5.0,2.2127313684210526,0.9696996315789472,1.2970118251286964,0.8553037707078232,0.17087035777565027,0.6917722395779402,2.392966700686627,0.538382364535243,1.0107901444689051
Encode-Decode_Experiment-1-1,2369373,encoding,1.123483,0.6,0.46848,0.117064,25,15,False,0.238755,0.215394,30,10,40,40,1.0,0.232915,1.0,6485.0,3.0,3.0,What tool is the chef using?,1.0,4938.0,3.0,3.0,What is the appearance of the oven?,10.0,2.0,,,,,0.0,0.0,0.0,0.0,0.0,0.0,1.120855157894737,0.002627842105263012,-0.13098214607050795,0.0023178345007685884,1.1019994584651411,1.0081877715287586,0.5606714068321198,0.538382364535243,-0.21582776069071838
Encode-Decode_Experiment-1-1,2347025,encoding,0.098753,0.473684,0.460684,0.131642,19,9,False,0.098077,0.100803,26,11,39,37,0.9487,0.101181,1.0,4866.0,1.0,1.0,Where is the baby in relation to the mother?,1.0,5607.0,2.0,2.0,Who is holding the umbrella in the scene?,11.0,2.0,,,,,0.5294117647058824,0.5,0.46153846153846156,9.0,3.0,6.0,0.9090625789473684,-0.8103095789473684,-0.8416889060794838,-0.7147170275664149,0.915773638327243,0.4406312404421499,-1.0843938967237412,0.538382364535243,-0.4537563527895882
Encode-Decode_Experiment-1-1,2349475,encoding,1.168152,0.291667,0.184917,0.091384,24,7,False,0.089086,0.054041,15,21,37,36,0.973,0.070533,1.0,4998.0,3.0,3.0,Which part of the blender is the woman holding?,0.0,14841.0,2.0,1.0,What is the man doing to power the blender?,12.0,1.0,,,,,0.5238095238095238,0.5,0.5454545454545454,11.0,5.0,6.0,1.3088556842105263,-0.14070368421052626,-0.10000173146096107,-0.12410481322117338,0.5433219980514467,0.7094738077989643,-1.1895331661494561,-1.6380569814582917,-0.00462725138827457
Encode-Decode_Experiment-1-1,2394020,encoding,1.776663,0.615385,0.351692,0.14842,13,8,False,0.183927,0.232903,24,3,33,27,0.8182,0.211957,1.0,11365.0,1.0,1.0,Where is the scene taking place?,1.0,3777.0,2.0,2.0,What are the riders wearing on their heads?,13.0,2.0,,,,,0.7857142857142857,1.0,0.5555555555555556,11.0,5.0,5.0,1.7388129473684213,0.03785005263157881,0.32203420116502035,0.03338486649166404,-0.2015812825001461,-1.003152917585187,-0.08047817208825674,0.538382364535243,0.478388380199379
Encode-Decode_Experiment-1-1,2362704,encoding,-0.792589,0.045455,0.099455,0.068131,22,1,False,0.209003,0.157402,2,24,28,26,0.9286,0.175742,1.0,4644.0,4.0,4.0,What are the bears doing with the pumpkins?,1.0,3040.0,2.0,2.0,How many bears are in the scene?,16.0,2.0,,,,,0.6,0.3333333333333333,0.6666666666666666,6.0,2.0,4.0,0.16786689473684208,-0.960455894736842,-1.4598837328923229,-0.8471505212695307,-1.132710383189637,0.21825528966552543,0.21275643141738557,0.538382364535243,-1.2864184153153637
Encode-Decode_Experiment-1-1,2385550,encoding,2.217431,0.391304,0.199174,0.086646,23,9,False,0.279624,0.292266,19,13,34,32,0.9412,0.305476,1.0,6081.0,3.0,3.0,Which side of the frame is the boy on? (from your perspective),1.0,4534.0,4.0,4.0,Where are the tangerines in the scene?,17.0,2.0,,,,,0.7058823529411765,0.8,0.6666666666666666,12.0,4.0,8.0,1.7045187368421055,0.5129122631578944,0.6277311137133367,0.45240379436559,-0.015355462362247916,0.35765513940609656,1.0385867446320918,0.538382364535243,0.4398621331126185
Encode-Decode_Experiment-1-1,2410309,encoding,2.29324,0.36,0.16272,0.086027,25,9,False,0.292115,0.298995,17,17,36,34,0.9444,0.285861,1.0,3857.0,2.0,2.0,What is the baby touching?,1.0,3350.0,4.0,4.0,How many laptops or electronic devices are visible?,20.0,2.0,,,,,0.4444444444444444,0.3333333333333333,0.45454545454545453,8.0,3.0,5.0,0.31938894736842105,1.973851052631579,0.6803088354249294,1.7409950392395799,0.3570961779135484,0.393058275848146,1.1846544361454507,0.538382364535243,-1.1161979626737186
Encode-Decode_Experiment-1-1,2356125,encoding,1.7459,0.32,0.18104,0.079592,25,8,False,0.342058,0.22663,18,15,34,33,0.9706,0.284523,1.0,3847.0,2.0,2.0,How many uniformed staff are moving the luggage?,1.0,5075.0,1.0,1.0,Where is the luggage being moved to?,22.0,2.0,,,,,0.56,0.4444444444444444,0.5625,14.0,4.0,9.0,0.7927103684210526,0.9531896315789474,0.30069836435126823,0.8407414621387327,-0.015355462362247916,0.6829214554674276,1.7686796316663587,0.538382364535243,-0.5844668704843423
Encode-Decode_Experiment-1-1,2348899,encoding,4.591028,0.75,0.2456,0.109866,20,15,False,0.217957,0.119061,28,4,32,32,1.0,0.205595,1.0,5228.0,4.0,4.0,What is the woman doing?,1.0,9034.0,1.0,1.0,Where is the woman located relative to the man? (from your perspective),23.0,2.0,,,,,0.6,0.625,0.5882352941176471,15.0,5.0,10.0,3.229555894736842,1.3614721052631578,2.273951516587289,1.2008586859510348,-0.3878071026380443,1.0081877715287586,0.31746302895246004,0.538382364535243,2.1530947009379826
Encode-Decode_Experiment-1-1,2350974,encoding,4.20909,0.736842,0.259579,0.113389,19,14,False,0.272914,0.241189,26,5,38,31,0.8158,0.278012,1.0,5186.0,4.0,4.0,Between which two objects is the child standing?,1.0,8762.0,1.0,1.0,What is the child up against?,24.0,2.0,,,,,0.5714285714285714,0.4,0.6,8.0,2.0,6.0,2.339101473684211,1.869988526315789,2.0090564530053614,1.6493852174966463,0.7295478181893448,-1.0297052699167248,0.9601211125726381,0.538382364535243,1.1527548033728465
Encode-Decode_Experiment-1-1,2383555,encoding,-0.030115,0.2,0.2028,0.092978,25,5,False,0.211438,0.14111,10,23,34,33,0.9706,0.165578,0.0,7759.0,3.0,2.0,Who is holding the child in the boat?,1.0,4709.0,4.0,4.0,What is the woman at the back doing in the boat?,26.0,1.0,,,,,0.45454545454545453,0.625,0.38461538461538464,10.0,5.0,5.0,0.08705284210526318,-0.11716784210526318,-0.9310659700366595,-0.10334550400432072,-0.015355462362247916,0.6829214554674276,0.2412309193555032,-1.6380569814582917,-1.377205230698606
Encode-Decode_Experiment-1-1,2409918,encoding,2.408731,0.473684,0.224211,0.103571,19,9,False,0.169894,0.098334,25,10,35,35,1.0,0.149448,1.0,9968.0,4.0,4.0,Where are the elephants in the scene?,1.0,6438.0,2.0,2.0,What is the elephant on the right (from your perspective) doing with its trunk?,27.0,2.0,,,,,0.5714285714285714,0.6666666666666666,0.5,12.0,6.0,5.0,2.2261904736842104,0.18254052631578954,0.7604082122560915,0.16100614600694985,0.17087035777565027,1.0081877715287586,-0.24457775698994302,0.538382364535243,1.025910154726533
Encode-Decode_Experiment-1-1,2347400,encoding,0.212464,0.222222,0.199444,0.107208,18,4,False,0.198821,0.245429,9,18,30,27,0.9,0.241136,1.0,3779.0,3.0,3.0,What are the men doing with the wine?,1.0,2865.0,1.0,1.0,What are the men sitting on in the scene?,31.0,2.0,,,,,0.47368421052631576,0.5,0.4166666666666667,9.0,4.0,5.0,1.0655103157894736,-0.8530463157894737,-0.7628240573999481,-0.7524120941400527,-0.7602587429138407,-0.09816024228529288,0.09368980464698956,0.538382364535243,-0.2780023676929396
Encode-Decode_Experiment-1-1,2408717,encoding,1.46445,0.363636,0.219955,0.098113,22,8,False,0.193703,0.220917,21,11,37,32,0.8649,0.207272,1.0,2675.0,2.0,2.0,How many surfers are in the scene?,1.0,4633.0,3.0,3.0,What are the surfers doing with the surfboards?,32.0,2.0,,,,,0.3684210526315789,0.14285714285714285,0.4166666666666667,7.0,1.0,5.0,0.5325437368421053,0.9319062631578947,0.10549726981463299,0.8219689013672603,0.5433219980514467,-0.4864883951340252,0.033840757719972435,0.538382364535243,-0.8767390580668307
Encode-Decode_Experiment-1-1,2386442,encoding,2.947547,0.769231,0.331385,0.148546,13,10,False,0.136657,0.144387,33,3,37,36,0.973,0.134292,1.0,6336.0,3.0,3.0,What is the person on the right wearing?,1.0,6401.0,1.0,1.0,Who is brushing their teeth in the scene?,33.0,2.0,,,,,0.5263157894736842,0.42857142857142855,0.5,10.0,3.0,7.0,2.9180839473684212,0.02946305263157889,1.1341068193047739,0.025987284300933437,0.5433219980514467,0.7094738077989643,-0.6332457469690879,0.538382364535243,1.8031859256447853
Encode-Decode_Experiment-1-1,2385851,encoding,0.29707,0.12,0.1012,0.063285,25,3,False,0.16401,0.12087,6,22,31,28,0.9032,0.15682,1.0,6572.0,3.0,3.0,Where are the men?,1.0,3877.0,2.0,2.0,What are the men doing with the suitcases?,35.0,2.0,,,,,0.35714285714285715,0.14285714285714285,0.5,5.0,1.0,4.0,-0.09687957894736844,0.39394957894736843,-0.7041451311097845,0.34747518651089776,-0.5740329227759424,-0.06275710584324344,-0.3133842814367129,0.538382364535243,-1.5838356150109119
Encode-Decode_Experiment-1-1,2344622,encoding,0.018231,0.333333,0.330417,0.159986,12,4,False,0.169364,0.246224,9,10,24,19,0.7917,0.254556,1.0,3713.0,4.0,4.0,What is the cat resting its head on?,1.0,8759.0,2.0,2.0,Where is the cat located?,37.0,2.0,,,,,0.4375,0.42857142857142855,0.4444444444444444,7.0,3.0,4.0,0.41730294736842105,-0.39907194736842105,-0.8975353531723207,-0.35199326704099665,-1.8776136637412297,-1.2963351412459114,-0.2507754894775005,0.538382364535243,-1.0062010011061555
Encode-Decode_Experiment-1-1,2411268,encoding,2.743085,0.6,0.2838,0.115272,20,12,False,0.159698,0.437671,23,8,32,31,0.9688,0.234453,0.0,9988.0,1.0,4.0,Where is the fruit branch relative to the child?,1.0,7151.0,2.0,2.0,What is the child holding while picking fruit?,38.0,1.0,,,,,0.47058823529411764,0.4,0.5,8.0,2.0,6.0,1.7140085263157894,1.0290764736842108,0.9923011479913986,0.9076759025427731,-0.3878071026380443,0.6630071912187744,-0.36380809744868947,-1.6380569814582917,0.4505229988521559
Encode-Decode_Experiment-1-1,2345035,encoding,-0.53349,0.25,0.305964,0.104902,28,7,False,0.234224,0.247613,15,21,41,36,0.878,0.23046,1.0,6065.0,3.0,3.0,What are the people doing with the football?,1.0,5287.0,2.0,2.0,Who runs toward the football in the scene?,42.0,2.0,,,,,0.4444444444444444,0.2857142857142857,0.4166666666666667,8.0,2.0,5.0,0.21320105263157893,-0.746691052631579,-1.2801842893202935,-0.6586036047365336,1.2882252786030393,-0.3415568053243844,0.5076866409809446,0.538382364535243,-1.2354898491895268
Encode-Decode_Experiment-1-1,2370664,encoding,4.605735,0.555556,0.141389,0.089924,18,10,False,0.144682,0.152652,28,12,40,40,1.0,0.147073,1.0,3329.0,1.0,1.0,Where are the people located in the scene?,1.0,3201.0,4.0,4.0,How many donuts are in the scene?,45.0,2.0,,,,,0.7777777777777778,0.6666666666666666,0.75,14.0,4.0,9.0,0.856098157894737,3.749636842105263,2.2841516320513158,3.3072906551645986,1.1019994584651411,1.0081877715287586,-0.5394027220395623,0.538382364535243,-0.5132567856896283
Encode-Decode_Experiment-1-1,2367132,encoding,2.469503,0.380952,0.154952,0.091516,21,8,False,0.120313,0.081787,21,15,37,36,0.973,0.103802,1.0,4443.0,4.0,4.0,In which hand(s) are the men holding the controllers?,1.0,3240.0,2.0,2.0,How many men are playing in the scene?,46.0,2.0,,,,,0.5909090909090909,0.5,0.5625,13.0,4.0,9.0,3.1794696842105266,-0.7099666842105266,0.8025569453070077,-0.6262116250301535,0.5433219980514467,0.7094738077989643,-0.8243697842835008,0.538382364535243,2.096827660736092
Encode-Decode_Experiment-10-1,2362704,encoding,1.880256,0.333333,0.182967,0.079971,30,10,False,0.248115,0.1542,17,17,35,34,0.9714,0.199018,1.0,4528.0,4.0,4.0,What are the bears doing with the pumpkins?,1.0,2438.0,2.0,2.0,How many bears are in the scene?,1.0,2.0,,,,,0.3,0.16666666666666666,0.3333333333333333,3.0,1.0,2.0,0.16786689473684208,1.712389105263158,0.3938816589242444,1.5103778643968004,0.17087035777565027,0.6917722395779402,0.6701257013293608,0.538382364535243,-1.2864184153153637
Encode-Decode_Experiment-10-1,150472,encoding,-0.859561,0.15,0.24775,0.113721,20,3,False,0.087219,0.075484,5,23,31,28,0.9032,0.092926,1.0,3338.0,2.0,2.0,Where is the pizza slice located?,1.0,2893.0,4.0,4.0,How many women are in the scene?,2.0,2.0,,,,,0.6111111111111112,0.8333333333333334,0.6,11.0,5.0,6.0,0.9545323684210526,-1.8140933684210525,-1.50633250781969,-1.600084034166471,-0.5740329227759424,-0.06275710584324344,-1.2113655558744933,0.538382364535243,-0.40267541762993775
Encode-Decode_Experiment-10-1,2370664,encoding,-0.010006,0.214286,0.2155,0.121359,14,3,False,0.069476,0.126217,6,16,26,22,0.8462,0.122232,1.0,3833.0,1.0,1.0,Where are the people located in the scene?,0.0,2566.0,3.0,4.0,How many donuts are in the scene?,4.0,1.0,,,,,0.2777777777777778,0.16666666666666666,0.25,5.0,1.0,3.0,0.856098157894737,-0.8661041578947369,-0.9171192696989896,-0.763929497288648,-1.5051620234654333,-0.6933754737172534,-1.4188492681890816,-1.6380569814582917,-0.5132567856896283
Encode-Decode_Experiment-10-1,2379478,encoding,0.921081,0.35,0.2475,0.111282,20,7,False,0.319026,0.389875,18,12,31,30,0.9677,0.355879,1.0,2007.0,2.0,2.0,How many babies are visible in the scene?,1.0,5045.0,4.0,4.0,What is the position of the babies?,5.0,2.0,,,,,0.0,0.0,0.0,0.0,0.0,0.0,2.2127313684210526,-1.2916503684210525,-0.2713590937926755,-1.1392738478695943,-0.5740329227759424,0.6508373630668198,1.4993472266599002,0.538382364535243,1.0107901444689051
Encode-Decode_Experiment-10-1,2412687,encoding,0.594297,0.416667,0.326083,0.152421,12,5,False,0.123179,0.199847,12,4,28,16,0.5714,0.119551,1.0,3895.0,3.0,3.0,What is the human's body position?,1.0,3399.0,4.0,4.0,What is the dog biting onto in the scene?,6.0,2.0,,,,,0.0,0.0,0.0,0.0,0.0,0.0,1.3483974210526317,-0.7541004210526318,-0.49800181710786406,-0.6651388869442529,-1.132710383189637,-3.7336198156782667,-0.7908552535111619,0.538382364535243,0.03979408680376899
Encode-Decode_Experiment-10-1,2347025,encoding,0.508345,0.52381,0.460143,0.125243,21,11,False,0.125089,0.154398,28,6,34,34,1.0,0.130261,1.0,3994.0,1.0,1.0,Where is the baby in relation to the mother?,0.0,4496.0,3.0,2.0,Who is holding the umbrella in the scene?,7.0,1.0,,,,,0.47058823529411764,0.3333333333333333,0.46153846153846156,8.0,2.0,6.0,0.9090625789473684,-0.40071757894736837,-0.5576142686183023,-0.35344476279167325,-0.015355462362247916,1.0081877715287586,-0.7685200288861906,-1.6380569814582917,-0.4537563527895882
Encode-Decode_Experiment-10-1,2356125,encoding,2.47984,0.5,0.243727,0.103342,22,11,False,0.235264,0.258587,25,10,37,35,0.9459,0.249079,1.0,2514.0,1.0,1.0,Where is the luggage being moved to?,1.0,3297.0,2.0,2.0,How many uniformed staff are moving the luggage?,8.0,2.0,,,,,0.36,0.2222222222222222,0.4375,9.0,2.0,7.0,0.7927103684210526,1.6871296315789472,0.8097262248032776,1.4880982611210705,0.5433219980514467,0.40965349605535617,0.519848229258416,0.538382364535243,-0.5844668704843423
Encode-Decode_Experiment-10-1,2350974,encoding,2.945957,0.8,0.3145,0.164802,10,8,False,0.256598,,19,0,25,19,0.76,0.238674,1.0,2261.0,1.0,1.0,What is the child up against?,1.0,4270.0,4.0,4.0,Between which two objects is the child standing?,9.0,2.0,,,,,0.0,0.0,0.0,0.0,0.0,0.0,2.339101473684211,0.6068555263157891,1.1330040666300065,0.5352645324693179,-1.6913878436033316,-1.6470474616249653,0.7693245026349264,0.538382364535243,1.1527548033728465
Encode-Decode_Experiment-10-1,2383555,encoding,0.816161,0.285714,0.199952,0.10508,21,6,False,0.302928,0.158923,10,16,32,26,0.8125,0.204814,1.0,3491.0,2.0,2.0,Who is holding the child in the boat?,1.0,4016.0,4.0,4.0,What is the woman at the back doing in the boat?,10.0,2.0,,,,,0.4090909090909091,0.375,0.46153846153846156,9.0,3.0,6.0,0.08705284210526318,0.7291081578947368,-0.34412689922448847,0.6430949712601111,-0.3878071026380443,-1.0662147543725884,1.3110998727265044,0.538382364535243,-1.377205230698606
Encode-Decode_Experiment-10-1,2369373,encoding,2.615965,0.777778,0.427389,0.133942,18,14,False,0.261421,0.402052,24,1,26,25,0.9615,0.261874,1.0,4815.0,3.0,3.0,What is the appearance of the oven?,1.0,4239.0,3.0,3.0,What tool is the chef using?,11.0,2.0,,,,,0.5,0.4,0.5,8.0,2.0,6.0,1.120855157894737,1.495109842105263,0.9041364184213254,1.3187311244955335,-1.5051620234654333,0.5822437862103489,0.8257238682716993,0.538382364535243,-0.21582776069071838
Encode-Decode_Experiment-10-1,2385550,encoding,0.843475,0.388889,0.287722,0.11994,18,7,False,0.276524,0.262302,14,14,32,28,0.875,0.277336,1.0,4548.0,3.0,3.0,Which side of the frame is the boy on? (from your perspective),1.0,3141.0,4.0,4.0,Where are the tangerines in the scene?,13.0,2.0,,,,,0.7647058823529411,0.8,0.75,13.0,4.0,9.0,1.7045187368421055,-0.8610437368421056,-0.3251831340932977,-0.7594660561706625,-0.3878071026380443,-0.374747245738806,1.002335856497322,0.538382364535243,0.4398621331126185
Encode-Decode_Experiment-10-1,2348899,encoding,4.18893,0.608696,0.217739,0.093331,23,14,False,0.201666,0.175792,22,6,28,28,1.0,0.196122,1.0,6102.0,1.0,1.0,Where is the woman located relative to the man? (from your perspective),1.0,3203.0,4.0,4.0,What is the woman doing?,14.0,2.0,,,,,0.48,0.5,0.47058823529411764,12.0,4.0,8.0,3.229555894736842,0.9593741052631581,1.9950743813554823,0.8461963509410887,-1.132710383189637,1.0081877715287586,0.1269587648868028,0.538382364535243,2.1530947009379826
Encode-Decode_Experiment-10-1,2411268,encoding,0.473765,0.461538,0.388769,0.153598,13,6,False,0.243625,0.288897,16,9,26,25,0.9615,0.264995,1.0,6114.0,4.0,4.0,Where is the fruit branch relative to the child?,0.0,23799.0,1.0,2.0,What is the child holding while picking fruit?,15.0,1.0,,,,,0.7058823529411765,1.0,0.5,12.0,5.0,6.0,1.7140085263157894,-1.2402435263157894,-0.5815974054066373,-1.0939314918853809,-1.5051620234654333,0.5822437862103489,0.6176203827083553,-1.6380569814582917,0.4505229988521559
Encode-Decode_Experiment-10-1,2387122,encoding,-0.136416,0.421053,0.439421,0.13465,19,8,False,0.179375,0.28172,13,11,24,24,1.0,0.226283,1.0,4071.0,3.0,3.0,Where is the polar bear located in the scene?,1.0,3613.0,1.0,1.0,What is the polar bear doing next to the enclosure edge?,17.0,2.0,,,,,0.3333333333333333,0.125,0.46153846153846156,7.0,1.0,6.0,0.8190727894736842,-0.9554887894736842,-1.004791575118695,-0.842769387439291,-1.8776136637412297,1.0081877715287586,-0.13370850847195767,0.538382364535243,-0.5548512259865765
Encode-Decode_Experiment-10-1,2349475,encoding,0.821209,0.153846,0.084154,0.084866,13,2,False,0.065656,0.09436,3,20,25,23,0.92,0.088054,1.0,2724.0,3.0,3.0,Which part of the blender is the woman holding?,1.0,3992.0,1.0,1.0,What is the man doing to power the blender?,18.0,2.0,,,,,0.7142857142857143,0.7,0.7272727272727273,15.0,7.0,8.0,1.3088556842105263,-0.48764668421052637,-0.34062583287088777,-0.4301188060670863,-1.6913878436033316,0.12310936047751764,-1.4635197174390238,0.538382364535243,-0.00462725138827457
Encode-Decode_Experiment-10-1,2410309,encoding,0.661148,0.263158,0.192158,0.107389,19,5,False,0.287865,0.226602,11,15,26,26,1.0,0.252521,1.0,5188.0,2.0,2.0,What is the baby touching?,1.0,3019.0,4.0,4.0,How many laptops or electronic devices are visible?,20.0,2.0,,,,,0.7777777777777778,0.6666666666666666,0.7272727272727273,14.0,6.0,8.0,0.31938894736842105,0.3417590526315789,-0.4516369623526017,0.30144159786197144,-1.5051620234654333,1.0081877715287586,1.134955637896169,0.538382364535243,-1.1161979626737186
Encode-Decode_Experiment-10-1,2344622,encoding,-0.988013,0.25,0.386562,0.138219,16,4,False,0.153564,0.260008,8,17,31,25,0.8065,0.256139,1.0,3365.0,4.0,4.0,What is the cat resting its head on?,1.0,4642.0,2.0,2.0,Where is the cat located?,22.0,2.0,,,,,0.625,0.5714285714285714,0.6666666666666666,10.0,4.0,6.0,0.41730294736842105,-1.4053159473684211,-1.595421052838059,-1.2395302521285838,-0.5740329227759424,-1.1325956352014315,-0.43553808061600524,0.538382364535243,-1.0062010011061555
Encode-Decode_Experiment-10-1,2397102,encoding,1.887584,0.5,0.27925,0.116948,20,10,False,0.116305,0.084022,27,5,34,32,0.9412,0.105677,1.0,2309.0,1.0,1.0,What are the couple doing with the cake?,1.0,3756.0,3.0,3.0,What is the man holding besides the cake knife?,23.0,2.0,,,,,0.0,0.0,0.0,0.0,0.0,0.0,2.2877332105263157,-0.4001492105263158,0.398964031000153,-0.35294344502496855,-0.015355462362247916,0.35765513940609656,-0.8712386744912937,0.538382364535243,1.0950475003480344
Encode-Decode_Experiment-10-1,2409918,encoding,-0.195526,0.352941,0.379176,0.134178,17,6,False,0.170519,0.124303,16,10,35,26,0.7429,0.131688,1.0,5345.0,4.0,4.0,Where are the elephants in the scene?,1.0,3997.0,2.0,2.0,What is the elephant on the right (from your perspective) doing with its trunk?,24.0,2.0,,,,,0.6190476190476191,0.5555555555555556,0.5,13.0,5.0,5.0,2.2261904736842104,-2.4217164736842105,-1.045787619524666,-2.1360255939818047,0.17087035777565027,-1.8362329719871682,-0.23726911018857796,0.538382364535243,1.025910154726533
Encode-Decode_Experiment-10-1,2374670,encoding,0.029488,0.714286,0.709929,0.14776,14,10,False,0.17199,0.258162,17,7,28,24,0.8571,0.215653,1.0,4770.0,1.0,1.0,What vehicle sprays water in the scene?,1.0,5684.0,3.0,3.0,Where is the man standing relative to the vehicle?,25.0,2.0,,,,,0.4117647058823529,0.42857142857142855,0.36363636363636365,7.0,3.0,4.0,1.2780294736842106,-1.2485414736842106,-0.8897280029459967,-1.1012505270197859,-1.132710383189637,-0.5727835402115216,-0.2200674790768855,0.538382364535243,-0.0392575340295389
Encode-Decode_Experiment-10-1,2360001,encoding,2.026076,0.285714,0.104571,0.089406,14,4,False,0.261531,0.219258,9,14,23,23,1.0,0.235799,1.0,4442.0,4.0,4.0,Where are the men standing?,1.0,3459.0,4.0,4.0,What are the workers doing to the clock?,27.0,2.0,,,,,0.0,0.0,0.0,0.0,0.0,0.0,1.1830057368421052,0.843070263157895,0.4950158696378071,0.7436129205045265,-2.063839483879128,1.0081877715287586,0.8270101901087396,0.538382364535243,-0.14600756292660452
Encode-Decode_Experiment-10-1,2347400,encoding,0.444285,0.4,0.3264,0.165659,10,4,False,0.138936,0.267598,21,11,37,32,0.8649,0.188872,1.0,2603.0,1.0,1.0,What are the men sitting on in the scene?,1.0,4788.0,3.0,3.0,What are the men doing with the wine?,29.0,2.0,,,,,0.42105263157894735,0.375,0.4166666666666667,8.0,3.0,5.0,1.0655103157894736,-0.6212253157894736,-0.6020434109740205,-0.5479391120204181,0.5433219980514467,-0.4864883951340252,-0.6065954972725908,0.538382364535243,-0.2780023676929396
Encode-Decode_Experiment-10-1,2408717,encoding,-0.059029,0.222222,0.228778,0.111057,18,4,False,0.157241,0.270898,12,12,28,24,0.8571,0.215179,1.0,3635.0,2.0,2.0,How many surfers are in the scene?,1.0,2977.0,3.0,3.0,What are the surfers doing with the surfboards?,30.0,2.0,,,,,0.7368421052631579,0.42857142857142855,0.8333333333333334,14.0,3.0,10.0,0.5325437368421053,-0.5915727368421053,-0.9511194233940313,-0.5217846599004364,-1.132710383189637,-0.5727835402115216,-0.3925398497542154,0.538382364535243,-0.8767390580668307
Encode-Decode_Experiment-10-1,2394020,encoding,1.732468,0.8,0.4745,0.187882,10,8,False,0.252803,,15,0,19,15,0.7895,0.247894,1.0,3488.0,1.0,1.0,Where is the scene taking place?,1.0,3246.0,2.0,2.0,What are the riders wearing on their heads?,33.0,2.0,,,,,0.0,0.0,0.0,0.0,0.0,0.0,1.7388129473684213,-0.006344947368421394,0.29138253169247946,-0.005596431340617294,-2.8087427644307206,-1.3206747975498203,0.7249463992570386,0.538382364535243,0.478388380199379
Encode-Decode_Experiment-10-1,2356991,encoding,2.220155,0.5,0.238,0.11801,16,8,False,0.128548,0.042288,20,10,31,30,0.9677,0.102377,1.0,5505.0,2.0,2.0,What is the current action of the gloved player on the base?,1.0,6324.0,1.0,1.0,How is the player on the left (from your perspective) reaching the base?,36.0,2.0,,,,,0.4375,0.3333333333333333,0.4444444444444444,7.0,3.0,4.0,0.8878508947368422,1.332304105263158,0.6296203579184098,1.175131646802444,-0.5740329227759424,0.6508373630668198,-0.7280710540287169,0.538382364535243,-0.47758563984648034
Encode-Decode_Experiment-10-1,2386442,encoding,-0.711952,0.545455,0.667818,0.171871,11,6,False,0.129535,0.134756,13,7,20,20,1.0,0.131362,1.0,4429.0,3.0,3.0,What is the person on the right wearing?,1.0,4695.0,1.0,1.0,Who is brushing their teeth in the scene?,37.0,2.0,,,,,0.3157894736842105,0.14285714285714285,0.35714285714285715,6.0,1.0,5.0,2.9180839473684212,-3.6300359473684214,-1.4039575269582294,-3.2017991267395702,-2.6225169442928222,1.0081877715287586,-0.7165292390000012,0.538382364535243,1.8031859256447853
Encode-Decode_Experiment-10-1,2345035,encoding,-0.090433,0.277778,0.289611,0.130852,18,5,False,0.17469,0.20841,12,14,40,26,0.65,0.167931,0.0,3175.0,2.0,3.0,What are the people doing with the football?,1.0,6623.0,2.0,2.0,Who runs toward the football in the scene?,41.0,1.0,,,,,0.5,0.2857142857142857,0.5833333333333334,9.0,2.0,7.0,0.21320105263157893,-0.30363405263157894,-0.972899829053397,-0.26781421965503127,1.1019994584651411,-2.8640302768204218,-0.18849412489498898,-1.6380569814582917,-1.2354898491895268
Encode-Decode_Experiment-10-1,2371471,encoding,1.413843,0.4,0.1956,0.144571,10,4,False,0.148076,0.373248,31,14,45,45,1.0,0.218129,1.0,7062.0,2.0,2.0,What stunt is one motorcyclist performing?,1.0,4367.0,3.0,3.0,What is nearest to the motorcyclists?,42.0,2.0,,,,,0.4,0.4,0.3,8.0,4.0,3.0,1.6745751666666666,-0.26073216666666665,0.0703985247756722,-0.229973486667933,2.033128559154632,1.0081877715287586,-0.4997138464494302,0.538382364535243,0.4062234120126392
Encode-Decode_Experiment-10-1,2385851,encoding,-0.674388,0.133333,0.215067,0.121196,15,2,False,0.367904,0.224178,6,13,30,19,0.6333,0.33537,1.0,5412.0,3.0,3.0,Where are the men?,1.0,2633.0,2.0,2.0,What are the men doing with the suitcases?,46.0,2.0,,,,,0.5714285714285714,0.42857142857142855,0.625,8.0,3.0,5.0,-0.09687957894736844,-0.5775084210526316,-1.377904821628067,-0.509379517178483,-0.7602587429138407,-3.048790395127369,2.070918488031283,0.538382364535243,-1.5838356150109119
Encode-Decode_Experiment-10-1,2367132,encoding,2.837132,0.5,0.165167,0.118018,12,6,False,0.105676,0.034278,11,11,22,22,1.0,0.069977,1.0,2315.0,2.0,2.0,How many men are playing in the scene?,0.0,7330.0,1.0,4.0,In which hand(s) are the men holding the controllers?,55.0,1.0,,,,,0.5,0.5,0.4375,11.0,4.0,7.0,3.1794696842105266,-0.34233768421052657,1.0575279283711707,-0.3019519680376501,-2.250065304017026,1.0081877715287586,-0.995532445454026,-1.6380569814582917,2.096827660736092
Encode-Decode_Experiment-11-1,2370664,encoding,0.697606,0.153846,0.108385,0.065168,26,4,False,0.15941,0.163214,9,25,34,34,1.0,0.162207,1.0,2788.0,4.0,4.0,How many donuts are in the scene?,1.0,3789.0,1.0,1.0,Where are the people located in the scene?,1.0,2.0,,,,,0.3888888888888889,0.3333333333333333,0.3333333333333333,7.0,2.0,4.0,0.856098157894737,-0.15849215789473703,-0.426351329008787,-0.1397947734127316,-0.015355462362247916,1.0081877715287586,-0.36717592189475856,0.538382364535243,-0.5132567856896283
Encode-Decode_Experiment-11-1,2356125,encoding,1.642844,0.4,0.24756,0.09279,25,10,False,0.290167,0.261904,18,12,37,30,0.8108,0.29884,0.0,2916.0,4.0,2.0,How many uniformed staff are moving the luggage?,1.0,3095.0,1.0,1.0,Where is the luggage being moved to?,2.0,1.0,,,,,0.4,0.2222222222222222,0.5,10.0,2.0,8.0,0.7927103684210526,0.8501336315789474,0.22922334570295597,0.7498430204733052,0.5433219980514467,-1.0850226706074275,1.1618748457949566,-1.6380569814582917,-0.5844668704843423
Encode-Decode_Experiment-11-1,2344622,encoding,-0.812151,0.16,0.23684,0.094613,25,4,False,0.21429,0.20509,8,22,36,30,0.8333,0.229643,1.0,3551.0,4.0,4.0,What is the cat resting its head on?,1.0,4489.0,2.0,2.0,Where is the cat located?,3.0,2.0,,,,,0.5625,0.5714285714285714,0.5555555555555556,9.0,4.0,5.0,0.41730294736842105,-1.229453947368421,-1.4734510585676672,-1.0844147639652026,0.3570961779135484,-0.8360943674992651,0.2745817364394918,0.538382364535243,-1.0062010011061555
Encode-Decode_Experiment-11-1,2369373,encoding,0.36254,0.407407,0.366444,0.112989,27,11,False,0.300643,0.323848,21,11,33,32,0.9697,0.302079,1.0,4641.0,3.0,3.0,What tool is the chef using?,0.0,4159.0,1.0,3.0,What is the appearance of the oven?,4.0,1.0,,,,,0.0,0.0,0.0,0.0,0.0,0.0,1.120855157894737,-0.758315157894737,-0.6587380760047444,-0.6688564095628023,-0.2015812825001461,0.672964323343101,1.2843794600207143,-1.6380569814582917,-0.21582776069071838
Encode-Decode_Experiment-11-1,2360001,encoding,1.051911,0.214286,0.137321,0.073166,28,6,False,0.150861,0.28008,13,22,35,35,1.0,0.232084,1.0,3527.0,4.0,4.0,What are the workers doing to the clock?,0.0,4447.0,2.0,4.0,Where are the men standing?,5.0,1.0,,,,,0.5833333333333334,0.75,0.5,7.0,3.0,4.0,1.1830057368421052,-0.13109473684210515,-0.1806212746481454,-0.11562943729124607,0.17087035777565027,1.0081877715287586,-0.4671465163025484,-1.6380569814582917,-0.14600756292660452
Encode-Decode_Experiment-11-1,150472,encoding,-0.525739,0.217391,0.272826,0.105442,23,5,False,0.091957,0.093667,11,16,29,27,0.931,0.10335,1.0,4609.0,2.0,2.0,Where is the pizza slice located?,1.0,2436.0,4.0,4.0,How many women are in the scene?,6.0,2.0,,,,,0.5555555555555556,0.5,0.7,10.0,3.0,7.0,0.9545323684210526,-1.4802713684210524,-1.2748085434195884,-1.3056431516012994,-0.9464845630517388,0.24480764199706342,-1.1559601662027064,0.538382364535243,-0.40267541762993775
Encode-Decode_Experiment-11-1,2362704,encoding,0.174253,0.153846,0.141192,0.072618,26,4,False,0.206413,0.164435,7,23,30,30,1.0,0.17423,1.0,3273.0,4.0,4.0,What are the bears doing with the pumpkins?,1.0,2147.0,2.0,2.0,How many bears are in the scene?,7.0,2.0,,,,,0.5,0.16666666666666666,0.6666666666666666,5.0,1.0,4.0,0.16786689473684208,0.006386105263157915,-0.7893254929065723,0.005632733821732288,-0.7602587429138407,1.0081877715287586,0.1824693990725296,0.538382364535243,-1.2864184153153637
Encode-Decode_Experiment-11-1,2367132,encoding,3.730474,0.35,0.0866,0.070608,20,7,False,0.089679,0.110717,19,14,34,33,0.9706,0.098292,1.0,5518.0,4.0,4.0,In which hand(s) are the men holding the controllers?,1.0,2338.0,2.0,2.0,How many men are playing in the scene?,8.0,2.0,,,,,0.5454545454545454,0.5,0.5,12.0,4.0,8.0,3.1794696842105266,0.5510043157894735,1.677109865466736,0.486002112018594,-0.015355462362247916,0.6829214554674276,-1.1825987220643213,0.538382364535243,2.096827660736092
Encode-Decode_Experiment-11-1,2386442,encoding,3.655787,0.703704,0.312148,0.107106,27,19,False,0.113722,0.105171,33,4,37,37,1.0,0.112798,0.0,3200.0,4.0,3.0,What is the person on the right wearing?,1.0,4148.0,1.0,1.0,Who is brushing their teeth in the scene?,9.0,1.0,,,,,0.631578947368421,0.2857142857142857,0.7142857142857143,12.0,2.0,10.0,2.9180839473684212,0.7377030526315789,1.6253103126237527,0.6506759227608225,0.5433219980514467,1.0081877715287586,-0.9014438499919746,-1.6380569814582917,1.8031859256447853
Encode-Decode_Experiment-11-1,2350974,encoding,2.970947,0.52381,0.222143,0.101539,21,11,False,0.217762,0.228406,24,6,33,30,0.9091,0.214192,1.0,6384.0,4.0,4.0,Between which two objects is the child standing?,1.0,2785.0,1.0,1.0,What is the child up against?,10.0,2.0,,,,,0.21428571428571427,0.2,0.2,3.0,1.0,2.0,2.339101473684211,0.6318455263157889,1.1503360096126696,0.5573064519812243,-0.2015812825001461,0.002517426971785785,0.3151827311504342,0.538382364535243,1.1527548033728465
Encode-Decode_Experiment-11-1,2347400,encoding,1.436542,0.318182,0.179818,0.096317,22,7,False,0.235781,0.188421,14,14,38,28,0.7368,0.237335,1.0,3737.0,3.0,3.0,What are the men doing with the wine?,1.0,2667.0,1.0,1.0,What are the men sitting on in the scene?,11.0,2.0,,,,,0.3157894736842105,0.125,0.4166666666666667,6.0,1.0,5.0,1.0655103157894736,0.37103168421052635,0.08614153292947248,0.3272609251594845,0.7295478181893448,-1.9037202008298253,0.5258939418925049,0.538382364535243,-0.2780023676929396
Encode-Decode_Experiment-11-1,2356991,encoding,0.951975,0.241379,0.166828,0.078313,29,7,False,0.12271,0.17492,14,20,37,34,0.9189,0.14964,1.0,6140.0,1.0,1.0,How is the player on the left (from your perspective) reaching the base?,1.0,6431.0,2.0,2.0,What is the current action of the gloved player on the base?,12.0,2.0,,,,,0.5,0.4444444444444444,0.4444444444444444,8.0,4.0,4.0,0.8878508947368422,0.06412410526315782,-0.2499324012554049,0.0565593584227108,0.5433219980514467,0.11093953232556318,-0.7963396620709061,0.538382364535243,-0.47758563984648034
Encode-Decode_Experiment-11-1,2371471,encoding,1.885618,0.44,0.25408,0.098599,25,11,False,0.261174,0.606556,21,10,31,31,1.0,0.372587,0.0,4957.0,1.0,3.0,What is nearest to the motorcyclists?,1.0,6247.0,2.0,2.0,What stunt is one motorcyclist performing?,14.0,1.0,,,,,0.5,0.6,0.4,10.0,6.0,4.0,1.6745751666666666,0.2110428333333334,0.39760050159223326,0.18614602424561924,-0.5740329227759424,1.0081877715287586,0.8228354910558,-1.6380569814582917,0.4062234120126392
Encode-Decode_Experiment-11-1,2411268,encoding,0.740941,0.294118,0.217059,0.104001,17,5,False,0.215979,0.289461,15,12,34,27,0.7941,0.236921,1.0,3943.0,2.0,2.0,What is the child holding while picking fruit?,1.0,5672.0,4.0,4.0,Where is the fruit branch relative to the child?,15.0,2.0,,,,,0.0,0.0,0.0,0.0,0.0,0.0,1.7140085263157894,-0.9730675263157894,-0.39629611695781847,-0.8582743535295139,-0.015355462362247916,-1.2697827889143736,0.2943326235555003,0.538382364535243,0.4505229988521559
Encode-Decode_Experiment-11-1,2408717,encoding,-0.470886,0.16,0.19976,0.084437,25,4,False,0.350207,0.289281,8,19,34,27,0.7941,0.298228,1.0,3767.0,3.0,3.0,What are the surfers doing with the surfboards?,1.0,2533.0,2.0,2.0,How many surfers are in the scene?,16.0,2.0,,,,,0.7368421052631579,0.14285714285714285,1.0,14.0,1.0,12.0,0.5325437368421053,-1.0034297368421052,-1.2367649632504,-0.8850547217017672,-0.015355462362247916,-1.2697827889143736,1.8639726921212751,0.538382364535243,-0.8767390580668307
Encode-Decode_Experiment-11-1,2410309,encoding,-0.011677,0.136364,0.137364,0.085637,22,3,False,0.308537,0.292408,7,24,34,31,0.9118,0.315882,1.0,3041.0,4.0,4.0,How many laptops or electronic devices are visible?,1.0,3278.0,2.0,2.0,What is the baby touching?,17.0,2.0,,,,,0.5,0.3333333333333333,0.5454545454545454,9.0,3.0,6.0,0.31938894736842105,-0.33106594736842104,-0.9182782003402074,-0.29200996258614625,-0.015355462362247916,0.032388823344765574,1.376690592580674,0.538382364535243,-1.1161979626737186
Encode-Decode_Experiment-11-1,2349475,encoding,-0.11116,0.173913,0.184609,0.096219,23,4,False,0.062321,0.052886,7,20,35,27,0.7714,0.078727,1.0,4349.0,3.0,3.0,Which part of the blender is the woman holding?,1.0,3378.0,1.0,1.0,What is the man doing to power the blender?,19.0,2.0,,,,,0.6190476190476191,0.6,0.6363636363636364,13.0,6.0,7.0,1.3088556842105263,-1.4200156842105263,-0.9872751464684293,-1.252495855022537,0.17087035777565027,-1.5209237880501638,-1.5025186567711073,0.538382364535243,-0.00462725138827457
Encode-Decode_Experiment-11-1,2385851,encoding,-1.019643,0.086957,0.172261,0.083661,23,2,False,0.158952,0.177844,5,21,32,26,0.8125,0.207879,1.0,3774.0,3.0,3.0,Where are the men?,1.0,2739.0,2.0,2.0,What are the men doing with the suitcases?,20.0,2.0,,,,,0.5,0.2857142857142857,0.625,7.0,2.0,5.0,-0.09687957894736844,-0.9227634210526316,-1.6173582019593726,-0.8139046440725713,-0.3878071026380443,-1.0662147543725884,-0.3725316982707986,0.538382364535243,-1.5838356150109119
Encode-Decode_Experiment-11-1,2387122,encoding,1.141207,0.47619,0.339095,0.120132,21,10,False,0.139046,0.109506,20,5,28,25,0.8929,0.136233,1.0,5174.0,3.0,3.0,Where is the polar bear located in the scene?,1.0,4770.0,1.0,1.0,What is the polar bear doing next to the enclosure edge?,21.0,2.0,,,,,0.38095238095238093,0.25,0.46153846153846156,8.0,2.0,6.0,0.8190727894736842,0.32213421052631586,-0.11868957474498891,0.28413190638065566,-1.132710383189637,-0.1767109512660905,-0.6053091754355505,0.538382364535243,-0.5548512259865765
Encode-Decode_Experiment-11-1,2345035,encoding,0.405641,0.16129,0.131161,0.074275,31,5,False,0.213296,0.22694,7,27,37,34,0.9189,0.213018,1.0,3135.0,2.0,2.0,Who runs toward the football in the scene?,1.0,4557.0,3.0,3.0,What are the people doing with the football?,22.0,2.0,,,,,0.4444444444444444,0.14285714285714285,0.4166666666666667,8.0,1.0,5.0,0.21320105263157893,0.19243994736842104,-0.628845155856855,0.16973772832213896,0.5433219980514467,0.11093953232556318,0.2629580645666011,0.538382364535243,-1.2354898491895268
Encode-Decode_Experiment-11-1,2397102,encoding,0.749626,0.3,0.22015,0.10652,20,6,False,0.173613,0.169396,16,12,30,28,0.9333,0.165927,1.0,3272.0,1.0,1.0,What are the couple doing with the cake?,1.0,4218.0,3.0,3.0,What is the man holding besides the cake knife?,23.0,2.0,,,,,0.38095238095238093,0.3333333333333333,0.3333333333333333,8.0,2.0,6.0,2.2877332105263157,-1.5381072105263156,-0.3902725905550802,-1.3566560758344943,-0.7602587429138407,0.27025364631478627,-0.20108838506310125,0.538382364535243,1.0950475003480344
Encode-Decode_Experiment-11-1,2383555,encoding,0.038668,0.222222,0.218778,0.089077,27,6,False,0.214496,0.127001,13,18,34,31,0.9118,0.177751,1.0,3165.0,4.0,4.0,What is the woman at the back doing in the boat?,1.0,2862.0,2.0,2.0,Who is holding the child in the boat?,24.0,2.0,,,,,0.0,0.0,0.0,0.0,0.0,0.0,0.08705284210526318,-0.04838484210526318,-0.8833611667482838,-0.042676862556243006,-0.015355462362247916,0.032388823344765574,0.27699066642522147,0.538382364535243,-1.377205230698606
Encode-Decode_Experiment-11-1,2394020,encoding,1.411591,0.75,0.541625,0.147617,16,12,False,0.284873,,20,0,25,20,0.8,0.280133,1.0,4892.0,2.0,2.0,What are the riders wearing on their heads?,1.0,2807.0,1.0,1.0,Where is the scene taking place?,27.0,2.0,,,,,0.6428571428571429,0.4,0.6666666666666666,9.0,2.0,6.0,1.7388129473684213,-0.32722194736842125,0.06883663859732263,-0.2886194408332946,-1.6913878436033316,-1.2045082560993443,1.099967683928675,0.538382364535243,0.478388380199379
Encode-Decode_Experiment-11-1,2374670,encoding,1.722857,0.44,0.25392,0.108007,25,11,False,0.236601,0.256587,19,14,35,33,0.9429,0.242823,1.0,4330.0,1.0,1.0,What vehicle sprays water in the scene?,0.0,6666.0,4.0,3.0,Where is the man standing relative to the vehicle?,29.0,1.0,,,,,0.4117647058823529,0.42857142857142855,0.36363636363636365,7.0,3.0,4.0,1.2780294736842106,0.4448275263157895,0.28471677322883915,0.3923510416859978,0.17087035777565027,0.3764630556409346,0.5354828864958958,-1.6380569814582917,-0.0392575340295389
Encode-Decode_Experiment-11-1,2385550,encoding,1.638093,0.285714,0.159679,0.076941,28,8,False,0.232533,0.234815,16,16,34,32,0.9412,0.232809,1.0,3325.0,4.0,4.0,Where are the tangerines in the scene?,1.0,5641.0,3.0,3.0,Which side of the frame is the boy on? (from your perspective),30.0,2.0,,,,,0.47058823529411764,0.2,0.5833333333333334,8.0,1.0,7.0,1.7045187368421055,-0.06642573684210551,0.22592826522634005,-0.058589465585945105,-0.015355462362247916,0.35765513940609656,0.48791236619517175,0.538382364535243,0.4398621331126185
Encode-Decode_Experiment-11-1,2412687,encoding,0.152419,0.357143,0.334429,0.149025,14,5,False,0.098331,0.218764,12,12,29,24,0.8276,0.141215,1.0,3151.0,4.0,4.0,What is the dog biting onto in the scene?,1.0,5574.0,3.0,3.0,What is the human's body position?,34.0,2.0,,,,,0.47058823529411764,0.6,0.5,8.0,3.0,5.0,1.3483974210526317,-1.1959784210526316,-0.8044685758630934,-1.0548883591364178,-0.9464845630517388,-0.8991562042866664,-1.0814236626636664,0.538382364535243,0.03979408680376899
Encode-Decode_Experiment-11-1,2409918,encoding,0.354383,0.36,0.32392,0.101811,25,9,False,0.147662,0.187722,21,12,35,33,0.9429,0.172968,1.0,3977.0,4.0,4.0,Where are the elephants in the scene?,1.0,4189.0,2.0,2.0,What is the elephant on the right (from your perspective) doing with its trunk?,35.0,2.0,,,,,0.42857142857142855,0.3333333333333333,0.5,9.0,3.0,5.0,2.2261904736842104,-1.8718074736842105,-0.6643954052928429,-1.6509895829024543,0.17087035777565027,0.3764630556409346,-0.5045550940906546,0.538382364535243,1.025910154726533
Encode-Decode_Experiment-11-1,2347025,encoding,0.686526,0.75,0.6718,0.113907,20,15,False,0.137319,0.055183,30,1,32,31,0.9688,0.13769,1.0,4062.0,1.0,1.0,Where is the baby in relation to the mother?,0.0,4582.0,3.0,2.0,Who is holding the umbrella in the scene?,43.0,1.0,,,,,0.47058823529411764,0.3333333333333333,0.46153846153846156,8.0,2.0,6.0,0.9090625789473684,-0.22253657894736845,-0.4340359199750897,-0.19628384800371798,-0.3878071026380443,0.6630071912187744,-0.6255044282770822,-1.6380569814582917,-0.4537563527895882
Encode-Decode_Experiment-11-1,2348899,encoding,3.835123,0.52,0.19808,0.08394,25,13,False,0.194244,0.172049,21,11,32,32,1.0,0.186614,1.0,3377.0,4.0,4.0,What is the woman doing?,1.0,9406.0,1.0,1.0,Where is the woman located relative to the man? (from your perspective),46.0,2.0,,,,,0.6,0.625,0.5882352941176471,15.0,5.0,10.0,3.229555894736842,0.6055671052631579,1.7496897174552395,0.534128106973538,-0.3878071026380443,1.0081877715287586,0.04016712239123406,0.538382364535243,2.1530947009379826
Encode-Decode_Experiment-11-1,2379478,encoding,-0.019075,0.285714,0.288429,0.142295,14,4,False,0.4593,0.376932,10,7,18,17,0.9444,0.444714,1.0,2193.0,2.0,2.0,How many babies are visible in the scene?,1.0,5005.0,4.0,4.0,What is the position of the babies?,47.0,2.0,,,,,0.7272727272727273,0.6,0.625,8.0,3.0,5.0,2.2127313684210526,-2.2318063684210525,-0.9234091212760113,-1.968519261260388,-2.994968584568619,0.393058275848146,3.139688220923359,0.538382364535243,1.0107901444689051
Encode-Decode_Experiment-12-1,2348899,encoding,1.566717,0.75,0.496167,0.162016,12,9,False,0.211917,,26,0,26,26,1.0,0.211917,1.0,4705.0,4.0,4.0,What is the woman doing?,1.0,6461.0,1.0,1.0,Where is the woman located relative to the man? (from your perspective),1.0,2.0,,,,,0.24,0.125,0.29411764705882354,6.0,1.0,5.0,3.229555894736842,-1.662838894736842,0.1764250734564097,-1.4666731124072416,-1.5051620234654333,1.0081877715287586,0.24683226626406934,0.538382364535243,2.1530947009379826
Encode-Decode_Experiment-12-1,2350974,encoding,1.903296,0.631579,0.401789,0.120732,19,12,False,0.342232,0.175951,22,5,30,27,0.9,0.297481,1.0,6260.0,4.0,4.0,Between which two objects is the child standing?,1.0,4350.0,1.0,1.0,What is the child up against?,2.0,2.0,,,,,0.07142857142857142,0.2,0.0,1.0,1.0,0.0,2.339101473684211,-0.43580547368421074,0.4098611693812496,-0.3843933242815382,-0.7602587429138407,-0.09816024228529288,1.7707143589358587,0.538382364535243,1.1527548033728465
Encode-Decode_Experiment-12-1,2362704,encoding,0.488559,0.166667,0.130375,0.074283,24,4,False,0.241483,0.322712,9,20,30,29,0.9667,0.298547,1.0,4769.0,4.0,4.0,What are the bears doing with the pumpkins?,1.0,1435.0,2.0,2.0,How many bears are in the scene?,3.0,2.0,,,,,0.6,0.3333333333333333,0.6666666666666666,6.0,2.0,4.0,0.16786689473684208,0.32069210526315794,-0.5713369506453121,0.28285992686331984,-0.7602587429138407,0.6397738829286793,0.5925721883907175,0.538382364535243,-1.2864184153153637
Encode-Decode_Experiment-12-1,2412687,encoding,1.598289,0.6,0.370667,0.143487,15,9,False,0.115768,0.140906,17,7,31,24,0.7742,0.118383,1.0,4546.0,4.0,4.0,What is the dog biting onto in the scene?,1.0,3800.0,3.0,3.0,What is the human's body position?,4.0,2.0,,,,,0.058823529411764705,0.0,0.1,1.0,0.0,1.0,1.3483974210526317,0.24989157894736835,0.19832199637952458,0.22041176750144506,-0.5740329227759424,-1.48994604366337,-0.8775182638230266,0.538382364535243,0.03979408680376899
Encode-Decode_Experiment-12-1,2379478,encoding,2.782982,0.722222,0.341778,0.136704,18,13,False,0.388866,0.249042,29,4,33,33,1.0,0.371917,1.0,2555.0,2.0,2.0,How many babies are visible in the scene?,1.0,4318.0,4.0,4.0,What is the position of the babies?,5.0,2.0,,,,,0.7272727272727273,0.6,0.625,8.0,3.0,5.0,2.2127313684210526,0.5702506315789475,1.0199719174663608,0.5029779320879145,-0.2015812825001461,1.0081877715287586,2.316044654831621,0.538382364535243,1.0107901444689051
Encode-Decode_Experiment-12-1,2374670,encoding,0.249412,0.318182,0.289955,0.113175,22,7,False,0.15559,0.127896,18,14,33,32,0.9697,0.139603,0.0,5477.0,4.0,1.0,What vehicle sprays water in the scene?,1.0,3700.0,3.0,3.0,Where is the man standing relative to the vehicle?,6.0,1.0,,,,,0.47058823529411764,0.42857142857142855,0.45454545454545453,8.0,3.0,5.0,1.2780294736842106,-1.0286174736842106,-0.7371985820368655,-0.9072710509599012,-0.2015812825001461,0.672964323343101,-0.41184637114470074,-1.6380569814582917,-0.0392575340295389
Encode-Decode_Experiment-12-1,2347400,encoding,1.382448,0.263158,0.141895,0.087716,19,5,False,0.173668,0.287058,14,13,30,27,0.9,0.223652,1.0,7922.0,3.0,3.0,What are the men doing with the wine?,1.0,2618.0,1.0,1.0,What are the men sitting on in the scene?,7.0,2.0,,,,,0.47368421052631576,0.375,0.5,9.0,3.0,6.0,1.0655103157894736,0.31693768421052626,0.04862436111257866,0.27954841639289507,-0.7602587429138407,-0.09816024228529288,-0.20044522414458116,0.538382364535243,-0.2780023676929396
Encode-Decode_Experiment-12-1,2408717,encoding,0.357366,0.217391,0.185,0.090639,23,5,False,0.307717,0.204369,11,19,32,30,0.9375,0.248498,1.0,5172.0,2.0,2.0,How many surfers are in the scene?,1.0,4703.0,3.0,3.0,What are the surfers doing with the surfboards?,8.0,2.0,,,,,0.42105263157894735,0.42857142857142855,0.3333333333333333,8.0,3.0,4.0,0.5325437368421053,-0.1751777368421053,-0.6623265303061568,-0.15451194780918828,-0.3878071026380443,0.31672026289497623,1.3671016479772833,0.538382364535243,-0.8767390580668307
Encode-Decode_Experiment-12-1,2386442,encoding,3.152635,0.777778,0.356444,0.133645,18,14,False,0.132073,0.059577,33,2,35,35,1.0,0.127931,1.0,3588.0,1.0,1.0,Who is brushing their teeth in the scene?,1.0,3734.0,3.0,3.0,What is the person on the right wearing?,9.0,2.0,,,,,0.10526315789473684,0.0,0.14285714285714285,2.0,0.0,2.0,2.9180839473684212,0.23455105263157883,1.2763466561366426,0.20688096932925956,0.17087035777565027,1.0081877715287586,-0.6868502860690187,0.538382364535243,1.8031859256447853
Encode-Decode_Experiment-12-1,2410309,encoding,0.27344,0.3,0.26725,0.11977,20,6,False,0.422645,0.22628,14,14,29,28,0.9655,0.320055,1.0,3377.0,4.0,4.0,How many laptops or electronic devices are visible?,1.0,4521.0,2.0,2.0,What is the baby touching?,12.0,2.0,,,,,0.5555555555555556,0.5555555555555556,0.45454545454545453,10.0,5.0,5.0,0.31938894736842105,-0.045948947368421034,-0.7205338391001938,-0.0405283313145883,-0.9464845630517388,0.6264977067629109,2.71105070331691,0.538382364535243,-1.1161979626737186
Encode-Decode_Experiment-12-1,2371471,encoding,3.127066,0.64,0.30496,0.107142,25,16,False,0.410398,0.467525,25,6,31,31,1.0,0.421455,1.0,14130.0,2.0,2.0,What stunt is one motorcyclist performing?,0.0,7842.0,1.0,3.0,What is nearest to the motorcyclists?,13.0,1.0,,,,,0.55,0.6,0.5,11.0,6.0,5.0,1.6745751666666666,1.4524908333333335,1.2586131447271305,1.2811398975636366,-0.5740329227759424,1.0081877715287586,2.5678363075148036,-1.6380569814582917,0.4062234120126392
Encode-Decode_Experiment-12-1,2356991,encoding,-0.476864,0.166667,0.2155,0.102405,24,4,False,0.14828,0.172787,7,23,30,30,1.0,0.167069,1.0,6140.0,1.0,1.0,How is the player on the left (from your perspective) reaching the base?,0.0,10852.0,1.0,2.0,What is the current action of the gloved player on the base?,14.0,1.0,,,,,0.5,0.3333333333333333,0.5555555555555556,8.0,3.0,5.0,0.8878508947368422,-1.3647148947368422,-1.2409110358854685,-1.203718922228466,-0.7602587429138407,1.0081877715287586,-0.4973283041334649,-1.6380569814582917,-0.47758563984648034
Encode-Decode_Experiment-12-1,2349475,encoding,0.903512,0.285714,0.19619,0.099084,21,6,False,0.06314,0.06219,12,15,30,27,0.9,0.073385,1.0,4695.0,1.0,1.0,What is the man doing to power the blender?,1.0,4553.0,3.0,3.0,Which part of the blender is the woman holding?,15.0,2.0,,,,,0.47619047619047616,0.4,0.5454545454545454,10.0,4.0,6.0,1.3088556842105263,-0.40534368421052636,-0.28354416407128324,-0.3575251245309344,-0.7602587429138407,-0.09816024228529288,-1.4929414060025985,0.538382364535243,-0.00462725138827457
Encode-Decode_Experiment-12-1,2370664,encoding,1.792974,0.36,0.20424,0.086872,25,9,False,0.158935,0.098141,17,15,32,32,1.0,0.130438,1.0,3163.0,1.0,1.0,Where are the people located in the scene?,1.0,2855.0,4.0,4.0,How many donuts are in the scene?,16.0,2.0,,,,,0.3333333333333333,0.3333333333333333,0.3333333333333333,6.0,2.0,4.0,0.856098157894737,0.9368758421052631,0.3333467790757933,0.8263522170601758,-0.3878071026380443,1.0081877715287586,-0.3727304934637959,0.538382364535243,-0.5132567856896283
Encode-Decode_Experiment-12-1,2394020,encoding,3.928929,0.782609,0.335478,0.113805,23,18,False,0.297217,0.201905,26,2,31,28,0.9032,0.305749,1.0,2564.0,2.0,2.0,What are the riders wearing on their heads?,1.0,6988.0,1.0,1.0,Where is the scene taking place?,17.0,2.0,,,,,0.6428571428571429,0.6,0.6666666666666666,9.0,3.0,6.0,1.7388129473684213,2.190116052631579,1.8147493510459436,1.9317471690211905,-0.5740329227759424,-0.06275710584324344,1.2443163817143528,0.538382364535243,0.478388380199379
Encode-Decode_Experiment-12-1,2345035,encoding,-0.513364,0.315789,0.383895,0.132665,19,6,False,0.180412,0.292083,14,13,34,27,0.7941,0.226322,1.0,3588.0,2.0,2.0,Who runs toward the football in the scene?,0.0,8018.0,2.0,3.0,What are the people doing with the football?,18.0,1.0,,,,,0.3333333333333333,0.14285714285714285,0.4166666666666667,6.0,1.0,5.0,0.21320105263157893,-0.726565052631579,-1.2662257985452205,-0.6408518771616384,-0.015355462362247916,-1.2697827889143736,-0.1215820016991332,-1.6380569814582917,-1.2354898491895268
Encode-Decode_Experiment-12-1,2369373,encoding,2.49022,0.647059,0.327706,0.128243,17,11,False,0.229375,0.075314,21,2,24,23,0.9583,0.21144,1.0,2801.0,3.0,3.0,What tool is the chef using?,1.0,4471.0,3.0,3.0,What is the appearance of the oven?,20.0,2.0,,,,,0.4375,0.4,0.4166666666666667,7.0,2.0,5.0,1.120855157894737,1.3693648421052629,0.8169253271706264,1.2078203134101122,-1.8776136637412297,0.5468406497682994,0.4509832356372352,0.538382364535243,-0.21582776069071838
Encode-Decode_Experiment-12-1,2360001,encoding,1.04886,0.333333,0.215133,0.112694,15,5,False,0.338907,0.117954,9,14,23,23,1.0,0.204414,1.0,4385.0,4.0,4.0,What are the workers doing to the clock?,1.0,5966.0,4.0,4.0,Where are the men standing?,21.0,2.0,,,,,0.75,0.75,0.75,9.0,3.0,6.0,1.1830057368421052,-0.1341457368421053,-0.1827373113844442,-0.11832050957739372,-2.063839483879128,1.0081877715287586,1.7318323579525978,0.538382364535243,-0.14600756292660452
Encode-Decode_Experiment-12-1,2344622,encoding,1.079607,0.277778,0.175444,0.094788,18,5,False,0.195878,0.182635,17,15,32,32,1.0,0.18967,1.0,3553.0,4.0,4.0,What is the cat resting its head on?,1.0,2338.0,2.0,2.0,Where is the cat located?,22.0,2.0,,,,,0.4375,0.42857142857142855,0.4444444444444444,7.0,3.0,4.0,0.41730294736842105,0.6623040526315789,-0.16141257145295393,0.5841717735300008,-0.3878071026380443,1.0081877715287586,0.059274848588722444,0.538382364535243,-1.0062010011061555
Encode-Decode_Experiment-12-1,2385550,encoding,0.806193,0.230769,0.163308,0.083679,26,6,False,0.187256,0.225803,11,21,32,32,1.0,0.212552,1.0,4594.0,3.0,3.0,Which side of the frame is the boy on? (from your perspective),1.0,2877.0,4.0,4.0,Where are the tangerines in the scene?,23.0,2.0,,,,,0.5294117647058824,0.6,0.5,9.0,3.0,6.0,1.7045187368421055,-0.8983257368421055,-0.3510402568735955,-0.7923498834312825,-0.3878071026380443,1.0081877715287586,-0.04154939576546668,0.538382364535243,0.4398621331126185
Encode-Decode_Experiment-12-1,2409918,encoding,2.437274,0.8125,0.475812,0.138141,16,13,False,0.105191,,29,0,31,29,0.9355,0.116702,0.0,7279.0,3.0,2.0,What is the elephant on the right (from your perspective) doing with its trunk?,1.0,3754.0,4.0,4.0,Where are the elephants in the scene?,25.0,1.0,,,,,0.47619047619047616,0.3333333333333333,0.5,10.0,3.0,5.0,2.2261904736842104,0.21108352631578953,0.7802043566560174,0.18618191666034503,-0.5740329227759424,0.2945933026186952,-1.001203955371885,-1.6380569814582917,1.025910154726533
Encode-Decode_Experiment-12-1,2347025,encoding,0.835642,0.722222,0.614611,0.128777,18,13,False,0.083014,0.033475,26,1,28,27,0.9643,0.080254,1.0,3188.0,1.0,1.0,Where is the baby in relation to the mother?,1.0,4422.0,2.0,2.0,Who is holding the umbrella in the scene?,26.0,2.0,,,,,0.5294117647058824,0.5,0.46153846153846156,9.0,3.0,6.0,0.9090625789473684,-0.07342057894736842,-0.3306157515155946,-0.06475912331634524,-1.132710383189637,0.6132215305971426,-1.2605381315540765,0.538382364535243,-0.4537563527895882
Encode-Decode_Experiment-12-1,2383555,encoding,0.882377,0.375,0.277958,0.109978,24,9,False,0.206303,0.170577,16,15,32,31,0.9688,0.185409,0.0,2500.0,3.0,2.0,Who is holding the child in the boat?,1.0,5224.0,4.0,4.0,What is the woman at the back doing in the boat?,27.0,1.0,,,,,0.4090909090909091,0.375,0.46153846153846156,9.0,3.0,6.0,0.08705284210526318,0.7953241578947368,-0.2982024519839917,0.7014994427447208,-0.3878071026380443,0.6630071912187744,0.18118307723548907,-1.6380569814582917,-1.377205230698606
Encode-Decode_Experiment-12-1,2356125,encoding,0.858316,0.277778,0.192889,0.098902,18,5,False,0.270544,0.210304,12,18,33,30,0.9091,0.236254,1.0,3678.0,2.0,2.0,How many uniformed staff are moving the luggage?,1.0,2689.0,1.0,1.0,Where is the luggage being moved to?,31.0,2.0,,,,,0.12,0.0,0.125,3.0,0.0,2.0,0.7927103684210526,0.06560563157894739,-0.31489008224032844,0.057866108475027926,-0.2015812825001461,0.002517426971785785,0.9324067239018626,0.538382364535243,-0.5844668704843423
Encode-Decode_Experiment-12-1,2387122,encoding,0.35523,0.470588,0.420118,0.142078,17,8,False,0.131836,0.071836,19,6,26,25,0.9615,0.122484,1.0,3195.0,3.0,3.0,Where is the polar bear located in the scene?,1.0,6460.0,1.0,1.0,What is the polar bear doing next to the enclosure edge?,32.0,2.0,,,,,0.3333333333333333,0.25,0.38461538461538464,7.0,2.0,5.0,0.8190727894736842,-0.46384278947368424,-0.6638079640881085,-0.4091230664968835,-1.5051620234654333,0.5822437862103489,-0.6896217249360961,0.538382364535243,-0.5548512259865765
Encode-Decode_Experiment-12-1,2411268,encoding,3.118175,0.777778,0.384611,0.126089,18,14,False,0.151452,0.139584,24,2,28,26,0.9286,0.14773,1.0,7147.0,2.0,2.0,What is the child holding while picking fruit?,1.0,5309.0,4.0,4.0,Where is the fruit branch relative to the child?,35.0,2.0,,,,,0.6470588235294118,0.4,0.75,11.0,2.0,9.0,1.7140085263157894,1.4041664736842105,1.2524467459652713,1.238516382323525,-1.132710383189637,0.21825528966552543,-0.4602354598871776,0.538382364535243,0.4505229988521559
Encode-Decode_Experiment-12-1,2367132,encoding,3.556522,0.545455,0.178591,0.103152,22,12,False,0.088573,0.076846,26,7,34,33,0.9706,0.085984,1.0,4645.0,4.0,4.0,In which hand(s) are the men holding the controllers?,1.0,1938.0,2.0,2.0,How many men are playing in the scene?,42.0,2.0,,,,,0.0,0.0,0.0,0.0,0.0,0.0,3.1794696842105266,0.3770523157894736,1.556464561516348,0.33257130037653126,-0.015355462362247916,0.6829214554674276,-1.1955321034440165,0.538382364535243,2.096827660736092
Encode-Decode_Experiment-12-1,2397102,encoding,1.238677,0.428571,0.28519,0.115753,21,9,False,0.085259,0.18614,19,10,31,29,0.9355,0.118279,1.0,2848.0,3.0,3.0,What is the man holding besides the cake knife?,1.0,2213.0,1.0,1.0,What are the couple doing with the cake?,46.0,2.0,,,,,0.2857142857142857,0.3333333333333333,0.2222222222222222,6.0,2.0,4.0,2.2877332105263157,-1.0490562105263157,-0.051088755116330785,-0.9252986216841396,-0.5740329227759424,0.2945933026186952,-1.2342854722435739,0.538382364535243,1.0950475003480344
Encode-Decode_Experiment-12-1,2385851,encoding,-1.348958,0.0,0.113294,0.083986,17,0,False,,0.143996,0,21,22,21,0.9545,0.147182,1.0,2616.0,2.0,2.0,What are the men doing with the suitcases?,0.0,5927.0,4.0,3.0,Where are the men?,48.0,1.0,,,,,0.7857142857142857,0.5714285714285714,0.875,11.0,4.0,7.0,-0.09687957894736844,-1.2520784210526317,-1.8457563133373514,-1.1043702192651874,-2.250065304017026,0.5047994252433652,,-1.6380569814582917,-1.5838356150109119
Encode-Decode_Experiment-12-1,150472,encoding,0.958904,0.458333,0.354917,0.107849,24,11,False,0.09993,0.108113,18,9,29,27,0.931,0.11259,1.0,1991.0,4.0,4.0,How many women are in the scene?,1.0,4824.0,2.0,2.0,Where is the pizza slice located?,49.0,2.0,,,,,0.7222222222222222,0.6666666666666666,0.9,13.0,4.0,9.0,0.9545323684210526,0.004371631578947377,-0.24512675768090023,0.00385590841932243,-0.9464845630517388,0.24480764199706342,-1.0627252206870543,0.538382364535243,-0.40267541762993775
Encode-Decode_Experiment-13-1,2383555,encoding,-0.941434,0.043478,0.111478,0.07223,23,1,False,0.250284,0.2218,2,24,33,26,0.7879,0.198782,0.0,6222.0,3.0,2.0,Who is holding the child in the boat?,1.0,3642.0,4.0,4.0,What is the woman at the back doing in the boat?,1.0,1.0,,,,,0.36363636363636365,0.375,0.38461538461538464,8.0,3.0,5.0,0.08705284210526318,-1.028486842105263,-1.5631159479085086,-0.9071558300415788,-0.2015812825001461,-1.3383763657708445,0.6954896291888176,-1.6380569814582917,-1.377205230698606
Encode-Decode_Experiment-13-1,2362704,encoding,-0.569881,0.074074,0.113481,0.06915,27,2,False,0.357824,0.25117,3,30,33,33,1.0,0.260866,1.0,4661.0,4.0,4.0,What are the bears doing with the pumpkins?,1.0,1935.0,2.0,2.0,How many bears are in the scene?,2.0,2.0,,,,,0.5,0.16666666666666666,0.6666666666666666,5.0,1.0,4.0,0.16786689473684208,-0.7377478947368421,-1.305423454469637,-0.6507154748246463,-0.2015812825001461,1.0081877715287586,1.9530446324188695,0.538382364535243,-1.2864184153153637
Encode-Decode_Experiment-13-1,2408717,encoding,0.977161,0.291667,0.207042,0.086603,24,7,False,0.27242,0.165683,15,13,38,28,0.7368,0.225013,1.0,5354.0,3.0,3.0,What are the surfers doing with the surfboards?,1.0,3379.0,2.0,2.0,How many surfers are in the scene?,3.0,2.0,,,,,0.3684210526315789,0.2857142857142857,0.3333333333333333,7.0,2.0,4.0,0.5325437368421053,0.4446172631578946,-0.23246452146503474,0.39216558335856133,0.7295478181893448,-1.9037202008298253,0.9543443581408394,0.538382364535243,-0.8767390580668307
Encode-Decode_Experiment-13-1,2356991,encoding,1.402613,0.307692,0.182385,0.089339,26,8,False,0.119732,0.180797,14,16,33,30,0.9091,0.156088,1.0,11044.0,2.0,2.0,What is the current action of the gloved player on the base?,1.0,8942.0,1.0,1.0,How is the player on the left (from your perspective) reaching the base?,4.0,2.0,,,,,0.4375,0.4444444444444444,0.3333333333333333,7.0,4.0,3.0,0.8878508947368422,0.5147621052631579,0.06260990053816505,0.4540354098435393,-0.2015812825001461,0.002517426971785785,-0.8311639023500496,0.538382364535243,-0.47758563984648034
Encode-Decode_Experiment-13-1,2349475,encoding,1.996356,0.458333,0.248625,0.105046,24,11,False,0.100344,0.047474,20,8,35,28,0.8,0.095884,1.0,7850.0,3.0,3.0,Which part of the blender is the woman holding?,1.0,3279.0,1.0,1.0,What is the man doing to power the blender?,5.0,2.0,,,,,0.38095238095238093,0.2,0.45454545454545453,8.0,2.0,5.0,1.3088556842105263,0.6875003157894737,0.4744034108364966,0.6063956232509745,0.17087035777565027,-1.2045082560993443,-1.0578839730458303,0.538382364535243,-0.00462725138827457
Encode-Decode_Experiment-13-1,2412687,encoding,1.426439,0.684211,0.489789,0.136298,19,13,False,0.102174,0.108124,17,7,30,24,0.8,0.108729,0.0,5320.0,2.0,3.0,What is the human's body position?,1.0,5698.0,4.0,4.0,What is the dog biting onto in the scene?,6.0,1.0,,,,,0.0,0.0,0.0,0.0,0.0,0.0,1.3483974210526317,0.0780415789473683,0.07913454533628142,0.06883498206242443,-0.7602587429138407,-1.2045082560993443,-1.036484255211434,-1.6380569814582917,0.03979408680376899
Encode-Decode_Experiment-13-1,2385851,encoding,-0.567677,0.090909,0.136545,0.080391,22,2,False,0.103798,0.287702,5,23,30,28,0.9333,0.256344,1.0,4739.0,2.0,2.0,What are the men doing with the suitcases?,0.0,5823.0,4.0,3.0,Where are the men?,7.0,1.0,,,,,0.5714285714285714,0.42857142857142855,0.625,8.0,3.0,5.0,-0.09687957894736844,-0.47079742105263156,-1.3038948589380728,-0.41525725735315083,-0.7602587429138407,0.27025364631478627,-1.0174934673627674,-1.6380569814582917,-1.5838356150109119
Encode-Decode_Experiment-13-1,2345035,encoding,0.447078,0.428571,0.371048,0.128666,21,9,False,0.15256,0.144497,16,10,35,26,0.7429,0.163761,0.0,6182.0,2.0,3.0,What are the people doing with the football?,1.0,5894.0,2.0,2.0,Who runs toward the football in the scene?,8.0,1.0,,,,,0.3888888888888889,0.42857142857142855,0.25,7.0,3.0,3.0,0.21320105263157893,0.23387694736842105,-0.6001063114641935,0.20628638853882034,0.17087035777565027,-1.8362329719871682,-0.44727869083771793,-1.6380569814582917,-1.2354898491895268
Encode-Decode_Experiment-13-1,2347025,encoding,0.571459,0.727273,0.664545,0.109767,22,16,False,0.091097,0.035702,26,4,30,30,1.0,0.083711,1.0,3674.0,1.0,1.0,Where is the baby in relation to the mother?,1.0,3658.0,2.0,2.0,Who is holding the umbrella in the scene?,11.0,2.0,,,,,0.47058823529411764,0.5,0.38461538461538464,8.0,3.0,5.0,0.9090625789473684,-0.33760357894736837,-0.5138412294263137,-0.29777634710241896,-0.7602587429138407,1.0081877715287586,-1.1660168642013844,0.538382364535243,-0.4537563527895882
Encode-Decode_Experiment-13-1,2410309,encoding,0.80925,0.15,0.0894,0.074884,20,3,False,0.2882,0.303889,6,17,23,23,1.0,0.299796,1.0,4719.0,2.0,2.0,What is the baby touching?,1.0,3730.0,4.0,4.0,How many laptops or electronic devices are visible?,12.0,2.0,,,,,0.6111111111111112,0.4444444444444444,0.6363636363636364,11.0,4.0,7.0,0.31938894736842105,0.489861052631579,-0.34892005880644866,0.4320719445427386,-2.063839483879128,1.0081877715287586,1.138873072581701,0.538382364535243,-1.1161979626737186
Encode-Decode_Experiment-13-1,2347400,encoding,-0.285091,0.25,0.2829,0.115402,20,5,False,0.19563,0.194686,11,18,33,29,0.8788,0.201439,1.0,4850.0,3.0,3.0,What are the men doing with the wine?,1.0,2984.0,1.0,1.0,What are the men sitting on in the scene?,13.0,2.0,,,,,0.3684210526315789,0.25,0.4166666666666667,7.0,2.0,5.0,1.0655103157894736,-1.3506013157894736,-1.107905885760849,-1.191270327943439,-0.2015812825001461,-0.33270602121387177,0.056374777537940866,0.538382364535243,-0.2780023676929396
Encode-Decode_Experiment-13-1,2367132,encoding,3.972417,0.461538,0.134923,0.082221,26,12,False,0.095807,0.137473,26,8,36,34,0.9444,0.10363,1.0,3504.0,2.0,2.0,How many men are playing in the scene?,0.0,15044.0,2.0,4.0,In which hand(s) are the men holding the controllers?,15.0,1.0,,,,,0.45454545454545453,0.25,0.5,10.0,2.0,8.0,3.1794696842105266,0.7929473157894735,1.8449106770335406,0.6994029976716226,0.3570961779135484,0.393058275848146,-1.1109389019062985,-1.6380569814582917,2.096827660736092
Encode-Decode_Experiment-13-1,2397102,encoding,2.18961,0.32,0.14304,0.080818,25,8,False,0.086902,0.131221,15,15,33,30,0.9091,0.109785,1.0,3084.0,1.0,1.0,What are the couple doing with the cake?,1.0,5802.0,3.0,3.0,What is the man holding besides the cake knife?,16.0,2.0,,,,,0.8571428571428571,0.8333333333333334,0.7222222222222222,18.0,5.0,13.0,2.2877332105263157,-0.09812321052631567,0.6084357161254749,-0.08654757537698686,-0.2015812825001461,0.002517426971785785,-1.2150725015321457,0.538382364535243,1.0950475003480344
Encode-Decode_Experiment-13-1,2379478,encoding,3.470931,0.5,0.214687,0.082201,32,16,False,0.359212,0.372775,23,12,35,35,1.0,0.363862,0.0,3873.0,3.0,4.0,What is the position of the babies?,1.0,3325.0,2.0,2.0,How many babies are visible in the scene?,17.0,1.0,,,,,0.8181818181818182,0.8,0.625,9.0,4.0,5.0,2.2127313684210526,1.2581996315789477,1.4971024834119415,1.109769308090177,0.17087035777565027,1.0081877715287586,1.9692756752353406,-1.6380569814582917,1.0107901444689051
Encode-Decode_Experiment-13-1,2394020,encoding,2.328615,0.764706,0.460882,0.130474,17,13,False,0.215258,0.250507,25,1,31,26,0.8387,0.216909,0.0,5040.0,1.0,2.0,What are the riders wearing on their heads?,0.0,10517.0,4.0,1.0,Where is the scene taking place?,19.0,0.0,,,,,0.5714285714285714,0.4,0.5555555555555556,8.0,2.0,5.0,1.7388129473684213,0.5898020526315788,0.704843348550648,0.5202228640281104,-0.5740329227759424,-0.7763515747533067,0.28590136860544574,-3.8144963274518267,0.478388380199379
Encode-Decode_Experiment-13-1,150472,encoding,-0.511376,0.2,0.25465,0.106869,20,4,False,0.068257,0.077041,10,20,31,30,0.9677,0.077114,1.0,3206.0,2.0,2.0,Where is the pizza slice located?,1.0,3176.0,4.0,4.0,How many women are in the scene?,22.0,2.0,,,,,0.6666666666666666,0.6666666666666666,0.7,12.0,4.0,7.0,0.9545323684210526,-1.4659083684210525,-1.2648470109241907,-1.2929745605669052,-0.5740329227759424,0.6508373630668198,-1.433104052910464,0.538382364535243,-0.40267541762993775
Encode-Decode_Experiment-13-1,2356125,encoding,2.12238,0.454545,0.247909,0.097361,22,10,False,0.293852,0.291583,19,8,33,27,0.8182,0.293749,1.0,6255.0,1.0,1.0,Where is the luggage being moved to?,1.0,5479.0,2.0,2.0,How many uniformed staff are moving the luggage?,24.0,2.0,,,,,0.4,0.4444444444444444,0.375,10.0,4.0,6.0,0.7927103684210526,1.3296696315789476,0.5618080039716359,1.1728079630528,-0.2015812825001461,-1.003152917585187,1.204966627335804,0.538382364535243,-0.5844668704843423
Encode-Decode_Experiment-13-1,2360001,encoding,0.852272,0.178571,0.120893,0.067676,28,5,False,0.281527,0.329262,12,22,34,34,1.0,0.312414,0.0,6756.0,2.0,4.0,Where are the men standing?,1.0,4500.0,4.0,4.0,What are the workers doing to the clock?,25.0,1.0,,,,,0.75,1.0,0.625,9.0,4.0,5.0,1.1830057368421052,-0.33073373684210516,-0.31908192951472675,-0.2917169430710577,-0.015355462362247916,1.0081877715287586,1.0608401124128881,-1.6380569814582917,-0.14600756292660452
Encode-Decode_Experiment-13-1,2371471,encoding,2.665161,0.521739,0.247565,0.102873,23,12,False,0.265591,0.546979,24,8,32,32,1.0,0.335938,0.0,7127.0,1.0,3.0,What is nearest to the motorcyclists?,1.0,6087.0,2.0,2.0,What stunt is one motorcyclist performing?,26.0,1.0,,,,,0.7,0.8,0.6,14.0,8.0,6.0,1.6745751666666666,0.9905858333333333,0.9382565571558227,0.8737260187262152,-0.3878071026380443,1.0081877715287586,0.8744871597304061,-1.6380569814582917,0.4062234120126392
Encode-Decode_Experiment-13-1,2348899,encoding,2.057856,0.47619,0.250286,0.109777,21,10,False,0.15063,0.129168,22,8,30,30,1.0,0.144907,1.0,6089.0,4.0,4.0,What is the woman doing?,1.0,6644.0,1.0,1.0,Where is the woman located relative to the man? (from your perspective),27.0,2.0,,,,,0.44,0.125,0.5882352941176471,11.0,1.0,10.0,3.229555894736842,-1.1716998947368418,0.5170570520303253,-1.0334739804681368,-0.7602587429138407,1.0081877715287586,-0.46984779216033296,0.538382364535243,2.1530947009379826
Encode-Decode_Experiment-13-1,2369373,encoding,0.563401,0.444444,0.366222,0.138839,18,8,False,0.227792,0.204199,19,7,28,26,0.9286,0.213981,1.0,4028.0,3.0,3.0,What tool is the chef using?,1.0,4322.0,3.0,3.0,What is the appearance of the oven?,28.0,2.0,,,,,0.8125,1.0,0.6666666666666666,13.0,5.0,8.0,1.120855157894737,-0.557454157894737,-0.5194298967554174,-0.4916910636211839,-1.132710383189637,0.21825528966552543,0.4324718950187381,0.538382364535243,-0.21582776069071838
Encode-Decode_Experiment-13-1,2386442,encoding,2.44309,0.695652,0.395913,0.122689,23,16,False,0.127344,0.099366,32,3,35,35,1.0,0.124946,1.0,6171.0,1.0,1.0,Who is brushing their teeth in the scene?,1.0,7296.0,3.0,3.0,What is the person on the right wearing?,29.0,2.0,,,,,0.631578947368421,0.5714285714285714,0.5714285714285714,12.0,4.0,8.0,2.9180839473684212,-0.47499394736842104,0.7842380733581852,-0.41895871774859816,0.17087035777565027,1.0081877715287586,-0.742150431226866,0.538382364535243,1.8031859256447853
Encode-Decode_Experiment-13-1,2387122,encoding,0.600094,0.461538,0.360231,0.16882,13,6,False,0.156238,0.374332,9,7,19,16,0.8421,0.261716,1.0,7180.0,1.0,1.0,What is the polar bear doing next to the enclosure edge?,1.0,5457.0,3.0,3.0,Where is the polar bear located in the scene?,30.0,2.0,,,,,0.38095238095238093,0.125,0.5384615384615384,8.0,1.0,7.0,0.8190727894736842,-0.2189787894736842,-0.4939812779533823,-0.19314577240470812,-2.8087427644307206,-0.7387357422836295,-0.40426876614104584,0.538382364535243,-0.5548512259865765
Encode-Decode_Experiment-13-1,2370664,encoding,-1.017978,0.058824,0.166882,0.106151,17,1,False,0.104568,0.133365,2,24,26,26,1.0,0.13115,1.0,5084.0,4.0,4.0,How many donuts are in the scene?,1.0,3212.0,1.0,1.0,Where are the people located in the scene?,31.0,2.0,,,,,0.2777777777777778,0.16666666666666666,0.3333333333333333,5.0,1.0,4.0,0.856098157894737,-1.874076157894737,-1.6162034326490031,-1.6529906295117525,-1.5051620234654333,1.0081877715287586,-1.0084892145034858,0.538382364535243,-0.5132567856896283
Encode-Decode_Experiment-13-1,2350974,encoding,4.241275,0.652174,0.237739,0.097715,23,15,False,0.22714,0.145314,23,4,31,27,0.871,0.217249,1.0,5577.0,4.0,4.0,Between which two objects is the child standing?,1.0,5629.0,1.0,1.0,What is the child up against?,32.0,2.0,,,,,0.0,0.0,0.0,0.0,0.0,0.0,2.339101473684211,1.902173526315789,2.031378525230132,1.6777733399252464,-0.5740329227759424,-0.41900116629136813,0.42484751467555437,0.538382364535243,1.1527548033728465
Encode-Decode_Experiment-13-1,2409918,encoding,-1.778182,0.142857,0.505714,0.204061,7,1,False,0.100713,0.241141,2,7,10,9,0.9,0.217613,1.0,5887.0,4.0,4.0,Where are the elephants in the scene?,0.0,6895.0,4.0,2.0,What is the elephant on the right (from your perspective) doing with its trunk?,36.0,1.0,,,,,0.42857142857142855,0.3333333333333333,0.5,9.0,3.0,5.0,2.2261904736842104,-4.00437247368421,-2.143446825333772,-3.5319750204338183,-4.484775145671804,-0.09816024228529288,-1.0535689479743044,-1.6380569814582917,1.025910154726533
Encode-Decode_Experiment-13-1,2385550,encoding,3.342677,0.464286,0.199464,0.079224,28,13,False,0.283041,0.31204,23,11,34,34,1.0,0.292423,1.0,4891.0,3.0,3.0,Which side of the frame is the boy on? (from your perspective),1.0,3565.0,4.0,4.0,Where are the tangerines in the scene?,37.0,2.0,,,,,0.7647058823529411,0.8,0.75,13.0,4.0,9.0,1.7045187368421055,1.6381582631578946,1.4081512623115626,1.4449040649976308,-0.015355462362247916,1.0081877715287586,1.078544578424514,0.538382364535243,0.4398621331126185
Encode-Decode_Experiment-13-1,2411268,encoding,0.019112,0.4,0.3966,0.1779,10,4,False,0.261656,0.271142,12,5,21,17,0.8095,0.283792,1.0,6461.0,4.0,4.0,Where is the fruit branch relative to the child?,1.0,3457.0,2.0,2.0,What is the child holding while picking fruit?,39.0,2.0,,,,,0.0,0.0,0.0,0.0,0.0,0.0,1.7140085263157894,-1.6948965263157894,-0.8969243310927798,-1.4949488921193468,-2.4362911241549243,-1.0994051947870098,0.8284719194690123,0.538382364535243,0.4505229988521559
Encode-Decode_Experiment-13-1,2374670,encoding,0.226189,0.473684,0.443421,0.133796,19,9,False,0.237692,0.276194,25,7,35,32,0.9143,0.259207,1.0,5496.0,3.0,3.0,Where is the man standing relative to the vehicle?,1.0,4751.0,1.0,1.0,What vehicle sprays water in the scene?,41.0,2.0,,,,,0.5294117647058824,0.5714285714285714,0.45454545454545453,9.0,4.0,5.0,1.2780294736842106,-1.0518404736842106,-0.75330501308474,-0.9277544241821902,0.17087035777565027,0.060047523690116275,0.5482408603523582,0.538382364535243,-0.0392575340295389
Encode-Decode_Experiment-13-1,2344622,encoding,1.476616,0.304348,0.16613,0.093604,23,7,False,0.166774,0.290839,15,13,33,28,0.8485,0.25128,1.0,3713.0,4.0,4.0,What is the cat resting its head on?,1.0,4659.0,2.0,2.0,Where is the cat located?,44.0,2.0,,,,,1.0,1.0,1.0,16.0,7.0,9.0,0.41730294736842105,1.0593130526315788,0.113935061664456,0.9343454599446654,-0.2015812825001461,-0.6679294693995294,-0.28106252182235647,0.538382364535243,-1.0062010011061555
Encode-Decode_Experiment-14-1,2369373,encoding,1.436457,0.444444,0.269333,0.121905,18,8,False,0.201006,0.326698,14,8,25,22,0.88,0.222772,0.0,5927.0,2.0,3.0,What is the appearance of the oven?,1.0,4681.0,3.0,3.0,What tool is the chef using?,1.0,1.0,,,,,0.8125,0.6,0.8333333333333334,13.0,3.0,10.0,1.120855157894737,0.3156018421052631,0.08608258074245669,0.278370164125395,-1.6913878436033316,-0.3194298450481034,0.1192408338645612,-1.6380569814582917,-0.21582776069071838
Encode-Decode_Experiment-14-1,2397102,encoding,3.841226,0.37931,0.122724,0.066798,29,11,False,0.11555,0.149194,21,15,37,36,0.973,0.126972,1.0,4256.0,1.0,1.0,What are the couple doing with the cake?,1.0,4480.0,3.0,3.0,What is the man holding besides the cake knife?,2.0,2.0,,,,,0.47619047619047616,0.5,0.3888888888888889,10.0,3.0,7.0,2.2877332105263157,1.553492789473684,1.7539224844829782,1.370226611760944,0.5433219980514467,0.7094738077989643,-0.8800675198273425,0.538382364535243,1.0950475003480344
Encode-Decode_Experiment-14-1,2350974,encoding,2.712301,0.6,0.28845,0.114866,20,12,False,0.287804,0.272957,27,3,33,30,0.9091,0.279347,1.0,12366.0,4.0,4.0,Between which two objects is the child standing?,1.0,3297.0,1.0,1.0,What is the child up against?,3.0,2.0,,,,,0.0,0.0,0.0,0.0,0.0,0.0,2.339101473684211,0.37319952631578923,0.9709507465196778,0.32917302604778886,-0.2015812825001461,0.002517426971785785,1.134242313968356,0.538382364535243,1.1527548033728465
Encode-Decode_Experiment-14-1,2362704,encoding,1.405212,0.173913,0.082522,0.065037,23,4,False,0.323391,0.188194,9,19,30,28,0.9333,0.248635,1.0,2038.0,2.0,2.0,How many bears are in the scene?,1.0,3418.0,4.0,4.0,What are the bears doing with the pumpkins?,4.0,2.0,,,,,0.6,0.16666666666666666,0.8333333333333334,6.0,1.0,5.0,0.16786689473684208,1.2373451052631579,0.06441245035056753,1.0913749987459764,-0.7602587429138407,0.27025364631478627,1.5503908159206328,0.538382364535243,-1.2864184153153637
Encode-Decode_Experiment-14-1,2347025,encoding,0.138287,0.684211,0.667737,0.119127,19,13,False,0.144578,0.062884,21,4,29,25,0.8621,0.129955,1.0,6163.0,1.0,1.0,Where is the baby in relation to the mother?,0.0,4779.0,3.0,2.0,Who is holding the umbrella in the scene?,5.0,1.0,,,,,0.47058823529411764,0.5,0.38461538461538464,8.0,3.0,5.0,0.9090625789473684,-0.7707755789473685,-0.8142698971208363,-0.6798468696639055,-0.9464845630517388,-0.517466139520819,-0.5406188808673094,-1.6380569814582917,-0.4537563527895882
Encode-Decode_Experiment-14-1,2408717,encoding,1.009447,0.26087,0.178,0.082094,23,6,False,0.321244,0.267482,12,14,33,26,0.7879,0.264068,1.0,2100.0,2.0,2.0,How many surfers are in the scene?,1.0,4261.0,3.0,3.0,What are the surfers doing with the surfboards?,6.0,2.0,,,,,0.5789473684210527,0.2857142857142857,0.6666666666666666,11.0,2.0,8.0,0.5325437368421053,0.47690326315789466,-0.21007240017098672,0.4206427907759848,-0.2015812825001461,-1.3383763657708445,1.5252841524285838,0.538382364535243,-0.8767390580668307
Encode-Decode_Experiment-14-1,2383555,encoding,-0.84846,0.045455,0.107,0.072538,22,1,False,0.40903,0.212643,2,23,32,25,0.7812,0.213888,1.0,4001.0,2.0,2.0,Who is holding the child in the boat?,1.0,3810.0,4.0,4.0,What is the woman at the back doing in the boat?,7.0,2.0,,,,,0.0,0.0,0.0,0.0,0.0,0.0,0.08705284210526318,-0.9355128421052632,-1.4986333521954187,-0.825150010725853,-0.3878071026380443,-1.4125016826963863,2.5518391413959765,0.538382364535243,-1.377205230698606
Encode-Decode_Experiment-14-1,2347400,encoding,2.033132,0.375,0.195417,0.088328,24,9,False,0.190789,0.219729,20,11,36,31,0.8611,0.205055,1.0,4992.0,3.0,3.0,What are the men doing with the wine?,1.0,2760.0,1.0,1.0,What are the men sitting on in the scene?,8.0,2.0,,,,,0.5263157894736842,0.5,0.5,10.0,4.0,6.0,1.0655103157894736,0.9676216842105265,0.49990959471526486,0.8534709596376068,0.3570961779135484,-0.5285296196589595,-0.0002350771267113335,0.538382364535243,-0.2780023676929396
Encode-Decode_Experiment-14-1,2409918,encoding,1.515797,0.45,0.28035,0.111921,20,9,False,0.095327,0.10184,20,11,33,31,0.9394,0.104578,0.0,9799.0,1.0,2.0,What is the elephant on the right (from your perspective) doing with its trunk?,1.0,3591.0,4.0,4.0,Where are the elephants in the scene?,9.0,1.0,,,,,0.47619047619047616,0.3333333333333333,0.5,10.0,3.0,5.0,2.2261904736842104,-0.7103934736842104,0.14110924565820243,-0.6265880659756304,-0.2015812825001461,0.33774087515744333,-1.1165519426497468,-1.6380569814582917,1.025910154726533
Encode-Decode_Experiment-14-1,2356991,encoding,0.473833,0.2,0.15932,0.085853,25,5,False,0.155579,0.201171,8,24,33,32,0.9697,0.189783,1.0,9904.0,2.0,2.0,What is the current action of the gloved player on the base?,1.0,6912.0,1.0,1.0,How is the player on the left (from your perspective) reaching the base?,10.0,2.0,,,,,0.625,0.5555555555555556,0.4444444444444444,10.0,5.0,4.0,0.8878508947368422,-0.4140178947368422,-0.5815502436570246,-0.3651760349050994,-0.2015812825001461,0.672964323343101,-0.4119750033284049,0.538382364535243,-0.47758563984648034
Encode-Decode_Experiment-14-1,2411268,encoding,2.938451,0.555556,0.221056,0.113835,18,10,False,0.157453,0.178419,16,11,33,27,0.8182,0.164798,1.0,7538.0,2.0,2.0,What is the child holding while picking fruit?,1.0,7174.0,4.0,4.0,Where is the fruit branch relative to the child?,11.0,2.0,,,,,0.6470588235294118,0.4,0.75,11.0,2.0,9.0,1.7140085263157894,1.2244424736842108,1.1277982417389354,1.0799944958746306,-0.2015812825001461,-1.003152917585187,-0.3900607567591922,0.538382364535243,0.4505229988521559
Encode-Decode_Experiment-14-1,2370664,encoding,0.09714,0.173913,0.166087,0.080565,23,4,False,0.23596,0.091393,12,23,37,35,0.9459,0.147265,1.0,3149.0,4.0,4.0,How many donuts are in the scene?,1.0,5105.0,1.0,1.0,Where are the people located in the scene?,12.0,2.0,,,,,0.4444444444444444,0.3333333333333333,0.3333333333333333,8.0,2.0,4.0,0.856098157894737,-0.758958157894737,-0.8428076105225024,-0.6694235545906597,0.5433219980514467,0.40965349605535617,0.527987138336416,0.538382364535243,-0.5132567856896283
Encode-Decode_Experiment-14-1,2387122,encoding,0.509501,0.5,0.435455,0.126684,22,11,False,0.114624,0.070043,21,8,34,29,0.8529,0.109765,1.0,9959.0,1.0,1.0,What is the polar bear doing next to the enclosure edge?,1.0,3811.0,3.0,3.0,Where is the polar bear located in the scene?,13.0,2.0,,,,,0.5238095238095238,0.375,0.6153846153846154,11.0,3.0,8.0,0.8190727894736842,-0.30957178947368424,-0.5568125188748867,-0.2730514792611364,-0.015355462362247916,-0.6192501567917116,-0.8908960109282448,0.538382364535243,-0.5548512259865765
Encode-Decode_Experiment-14-1,2374670,encoding,1.280649,0.478261,0.332348,0.113937,23,11,False,0.249489,0.191983,18,9,32,27,0.8438,0.235517,1.0,11581.0,3.0,3.0,Where is the man standing relative to the vehicle?,1.0,5812.0,1.0,1.0,What vehicle sprays water in the scene?,15.0,2.0,,,,,0.35294117647058826,0.2857142857142857,0.36363636363636365,6.0,2.0,4.0,1.2780294736842106,0.0026195263157893223,-0.0219788587230402,0.0023104997283693476,-0.3878071026380443,-0.7199278260487902,0.6861930304574813,0.538382364535243,-0.0392575340295389
Encode-Decode_Experiment-14-1,2344622,encoding,0.544709,0.25,0.19535,0.100329,20,5,False,0.154286,0.213588,10,15,31,25,0.8065,0.213326,1.0,4246.0,4.0,4.0,What is the cat resting its head on?,1.0,5657.0,2.0,2.0,Where is the cat located?,16.0,2.0,,,,,0.125,0.14285714285714285,0.1111111111111111,2.0,1.0,1.0,0.41730294736842105,0.12740605263157895,-0.5323938294577758,0.11237590866086362,-0.5740329227759424,-1.1325956352014315,-0.4270951318310685,0.538382364535243,-1.0062010011061555
Encode-Decode_Experiment-14-1,2356125,encoding,0.717822,0.296296,0.231481,0.090294,27,8,False,0.280217,0.247689,17,13,36,30,0.8333,0.255928,0.0,6148.0,4.0,2.0,How many uniformed staff are moving the luggage?,1.0,4147.0,1.0,1.0,Where is the luggage being moved to?,17.0,1.0,,,,,0.0,0.0,0.0,0.0,0.0,0.0,0.7927103684210526,-0.07488836842105262,-0.4123304182709912,-0.0660537570674205,0.3570961779135484,-0.8360943674992651,1.0455211887172269,-1.6380569814582917,-0.5844668704843423
Encode-Decode_Experiment-14-1,2360001,encoding,2.320179,0.269231,0.1145,0.066689,26,7,False,0.371708,0.245339,14,17,32,31,0.9688,0.318284,1.0,4558.0,4.0,4.0,Where are the men standing?,1.0,5194.0,4.0,4.0,What are the workers doing to the clock?,18.0,2.0,,,,,0.5833333333333334,0.75,0.5,7.0,3.0,4.0,1.1830057368421052,1.1371732631578948,0.6989925173781091,1.0030204696926106,-0.3878071026380443,0.6630071912187744,2.11540183592311,0.538382364535243,-0.14600756292660452
Encode-Decode_Experiment-14-1,2367132,encoding,2.619632,0.428571,0.179952,0.094906,21,9,False,0.109982,0.086747,22,8,33,30,0.9091,0.100056,1.0,7143.0,4.0,4.0,In which hand(s) are the men holding the controllers?,1.0,3069.0,2.0,2.0,How many men are playing in the scene?,19.0,2.0,,,,,0.5,0.5,0.4375,11.0,4.0,7.0,3.1794696842105266,-0.5598376842105264,0.9066796851247038,-0.4937934043657674,-0.2015812825001461,0.002517426971785785,-0.9451787924513423,0.538382364535243,2.096827660736092
Encode-Decode_Experiment-14-1,2371471,encoding,-0.129305,0.333333,0.347542,0.109883,24,8,False,0.352704,0.488962,19,13,32,32,1.0,0.408059,1.0,9321.0,2.0,2.0,What stunt is one motorcyclist performing?,1.0,5747.0,3.0,3.0,What is nearest to the motorcyclists?,21.0,2.0,,,,,0.6,0.6,0.6,12.0,6.0,6.0,1.6745751666666666,-1.8038801666666666,-0.9998597045084622,-1.5910756879868377,-0.3878071026380443,1.0081877715287586,1.8931721978220886,0.538382364535243,0.4062234120126392
Encode-Decode_Experiment-14-1,2349475,encoding,-0.367195,0.068966,0.089241,0.055218,29,2,False,0.111236,0.069909,4,29,35,33,0.9429,0.077785,0.0,6205.0,2.0,1.0,What is the man doing to power the blender?,1.0,3986.0,3.0,3.0,Which part of the blender is the woman holding?,27.0,1.0,,,,,0.42857142857142855,0.4,0.45454545454545453,9.0,4.0,5.0,1.3088556842105263,-1.6760506842105263,-1.1648495370873222,-1.4783263016904429,0.17087035777565027,0.3764630556409346,-0.9305147235090837,-1.6380569814582917,-0.00462725138827457
Encode-Decode_Experiment-14-1,2410309,encoding,0.556816,0.291667,0.238125,0.096157,24,7,False,0.138473,0.263642,14,16,32,30,0.9375,0.204776,1.0,3562.0,4.0,4.0,How many laptops or electronic devices are visible?,1.0,4495.0,2.0,2.0,What is the baby touching?,30.0,2.0,,,,,0.3333333333333333,0.1111111111111111,0.45454545454545453,6.0,1.0,5.0,0.31938894736842105,0.23742705263157893,-0.5239969573612931,0.20941768643675238,-0.3878071026380443,0.31672026289497623,-0.6120097428230418,0.538382364535243,-1.1161979626737186
Encode-Decode_Experiment-14-1,150472,encoding,1.234119,0.363636,0.240136,0.100071,22,8,False,0.095566,0.081963,18,13,31,31,1.0,0.089862,1.0,2356.0,4.0,4.0,How many women are in the scene?,1.0,3474.0,2.0,2.0,Where is the pizza slice located?,31.0,2.0,,,,,0.4444444444444444,0.3333333333333333,0.6,8.0,2.0,6.0,0.9545323684210526,0.27958663157894736,-0.05424997945066369,0.24660368266779525,-0.5740329227759424,1.0081877715287586,-1.1137571161129047,0.538382364535243,-0.40267541762993775
Encode-Decode_Experiment-14-1,2386442,encoding,3.735814,0.692308,0.293846,0.10666,26,18,False,0.114149,0.106087,26,7,33,33,1.0,0.112439,1.0,5893.0,3.0,3.0,What is the person on the right wearing?,1.0,5111.0,1.0,1.0,Who is brushing their teeth in the scene?,32.0,2.0,,,,,0.0,0.0,0.0,0.0,0.0,0.0,2.9180839473684212,0.8177300526315787,1.6808134499216147,0.7212621049448695,-0.2015812825001461,1.0081877715287586,-0.8964505824972822,0.538382364535243,1.8031859256447853
Encode-Decode_Experiment-14-1,2394020,encoding,3.142319,0.636364,0.301136,0.106681,22,14,False,0.276657,0.296235,19,8,33,27,0.8182,0.293586,0.0,5297.0,4.0,1.0,Where is the scene taking place?,1.0,4901.0,2.0,2.0,What are the riders wearing on their heads?,33.0,1.0,,,,,1.0,0.8,1.0,14.0,4.0,9.0,1.7388129473684213,1.4035060526315788,1.2691919412983412,1.2379338714117172,-0.2015812825001461,-1.003152917585187,1.0038911365366523,-1.6380569814582917,0.478388380199379
Encode-Decode_Experiment-14-1,2385851,encoding,0.548615,0.136364,0.0995,0.067194,22,3,False,0.125317,0.240421,6,18,27,24,0.8889,0.226293,1.0,2432.0,2.0,2.0,What are the men doing with the suitcases?,1.0,9734.0,3.0,3.0,Where are the men?,35.0,2.0,,,,,0.8571428571428571,0.5714285714285714,1.0,12.0,4.0,8.0,-0.09687957894736844,0.6454945789473684,-0.5296848030756117,0.5693453203093175,-1.3189362033275351,-0.2209648718186526,-0.7658538345330527,0.538382364535243,-1.5838356150109119
Encode-Decode_Experiment-14-1,2385550,encoding,-0.836359,0.095238,0.175429,0.095881,21,2,False,0.368029,0.282615,4,22,27,26,0.963,0.288785,1.0,2935.0,4.0,4.0,Where are the tangerines in the scene?,1.0,6075.0,3.0,3.0,Which side of the frame is the boy on? (from your perspective),36.0,2.0,,,,,0.4117647058823529,0.6,0.3333333333333333,7.0,3.0,4.0,1.7045187368421055,-2.5408777368421056,-1.4902406414297842,-2.241129354344487,-1.3189362033275351,0.598839006417559,2.072380217391556,0.538382364535243,0.4398621331126185
Encode-Decode_Experiment-14-1,2345035,encoding,-0.717731,0.1,0.1709,0.098784,20,2,False,0.109165,0.162186,5,19,33,24,0.7273,0.143989,0.0,7745.0,4.0,3.0,What are the people doing with the football?,1.0,5836.0,2.0,2.0,Who runs toward the football in the scene?,44.0,1.0,,,,,0.3888888888888889,0.14285714285714285,0.4166666666666667,7.0,1.0,5.0,0.21320105263157893,-0.930932052631579,-1.4079655821201664,-0.8211096188539068,-0.2015812825001461,-2.008823262142161,-0.9547326555500866,-1.6380569814582917,-1.2354898491895268
Encode-Decode_Experiment-14-1,2379478,encoding,2.698042,0.521739,0.234739,0.106373,23,12,False,0.344475,0.329327,20,8,33,28,0.8485,0.350471,0.0,3323.0,3.0,4.0,What is the position of the babies?,1.0,1994.0,2.0,2.0,How many babies are visible in the scene?,45.0,1.0,,,,,0.7272727272727273,0.6,0.625,8.0,3.0,5.0,2.2127313684210526,0.4853106315789475,0.9610613437589818,0.4280583385168328,-0.2015812825001461,-0.6679294693995294,1.7969436305765971,-1.6380569814582917,1.0107901444689051
Encode-Decode_Experiment-14-1,2412687,encoding,-0.388971,0.375,0.430187,0.141881,16,6,False,0.136834,0.129977,12,11,28,23,0.8214,0.129204,1.0,2710.0,4.0,4.0,What is the dog biting onto in the scene?,1.0,7457.0,3.0,3.0,What is the human's body position?,46.0,2.0,,,,,0.0,0.0,0.0,0.0,0.0,0.0,1.3483974210526317,-1.7373684210526317,-1.1799523938456444,-1.5324103601188523,-1.132710383189637,-0.9677497811431375,-0.6311759381949412,0.538382364535243,0.03979408680376899
Encode-Decode_Experiment-14-1,2348899,encoding,4.824092,0.730769,0.279808,0.093481,26,19,False,0.204805,0.124355,31,1,32,32,1.0,0.202291,1.0,4351.0,1.0,1.0,Where is the woman located relative to the man? (from your perspective),1.0,4085.0,4.0,4.0,What is the woman doing?,58.0,2.0,,,,,0.48,0.25,0.5882352941176471,12.0,2.0,10.0,3.229555894736842,1.5945361052631584,2.435594252053931,1.4064280308539152,-0.3878071026380443,1.0081877715287586,0.16366571258197765,0.538382364535243,2.1530947009379826
Encode-Decode_Experiment-15-1,2347025,encoding,-0.104589,0.785714,0.798929,0.126345,14,11,False,0.067175,0.083575,42,2,49,44,0.898,0.079173,1.0,6200.0,2.0,2.0,Who is holding the umbrella in the scene?,1.0,2622.0,1.0,1.0,Where is the baby in relation to the mother?,1.0,2.0,,,,,0.6470588235294118,0.6666666666666666,0.5384615384615384,11.0,4.0,7.0,0.9090625789473684,-1.0136515789473683,-0.9827177956345327,-0.8940706889265622,2.778031839706225,-0.12028720256157394,-1.4457567822529869,0.538382364535243,-0.4537563527895882
Encode-Decode_Experiment-15-1,2374670,encoding,0.823044,0.416667,0.323792,0.112843,24,10,False,0.230862,0.247911,25,9,35,34,0.9714,0.242316,1.0,7792.0,1.0,1.0,What vehicle sprays water in the scene?,0.0,4486.0,2.0,3.0,Where is the man standing relative to the vehicle?,2.0,1.0,,,,,0.4117647058823529,0.42857142857142855,0.36363636363636365,7.0,3.0,4.0,1.2780294736842106,-0.4549854736842106,-0.3393531591864865,-0.40131065186210496,0.17087035777565027,0.6917722395779402,0.46837196810704274,-1.6380569814582917,-0.0392575340295389
Encode-Decode_Experiment-15-1,2369373,encoding,1.50858,0.4375,0.250875,0.123709,16,7,False,0.185941,0.287374,21,10,37,31,0.8378,0.191001,1.0,4360.0,3.0,3.0,What tool is the chef using?,1.0,3235.0,3.0,3.0,What is the appearance of the oven?,3.0,2.0,,,,,0.5625,0.6,0.5,9.0,3.0,6.0,1.120855157894737,0.38772484210526303,0.13610385820298515,0.3419847844117987,0.5433219980514467,-0.7863087068776333,-0.05692678863553858,0.538382364535243,-0.21582776069071838
Encode-Decode_Experiment-15-1,2371471,encoding,0.760647,0.45,0.35825,0.120621,20,9,False,0.214091,0.578966,21,17,38,38,1.0,0.377325,1.0,5313.0,2.0,2.0,What stunt is one motorcyclist performing?,1.0,8140.0,3.0,3.0,What is nearest to the motorcyclists?,4.0,2.0,,,,,0.65,0.5,0.8,13.0,5.0,8.0,1.6745751666666666,-0.9139281666666667,-0.38262891934211785,-0.8061116882485353,0.7295478181893448,1.0081877715287586,0.2722546632979372,0.538382364535243,0.4062234120126392
Encode-Decode_Experiment-15-1,2349475,encoding,0.74524,0.285714,0.209952,0.101661,21,6,False,0.088462,0.044051,16,19,37,35,0.9459,0.068249,1.0,4076.0,3.0,3.0,Which part of the blender is the woman holding?,1.0,4491.0,1.0,1.0,What is the man doing to power the blender?,5.0,2.0,,,,,0.6666666666666666,0.9,0.45454545454545453,14.0,9.0,5.0,1.3088556842105263,-0.5636156842105263,-0.3933145234050986,-0.4971257121655266,0.5433219980514467,0.40965349605535617,-1.196830119115939,0.538382364535243,-0.00462725138827457
Encode-Decode_Experiment-15-1,2356125,encoding,0.744871,0.28,0.216,0.085921,25,7,False,0.289355,0.192174,15,25,45,40,0.8889,0.230506,1.0,7624.0,1.0,1.0,Where is the luggage being moved to?,1.0,5413.0,2.0,2.0,How many uniformed staff are moving the luggage?,6.0,2.0,,,,,0.56,0.5555555555555556,0.5625,14.0,5.0,9.0,0.7927103684210526,-0.04783936842105263,-0.3935704452522616,-0.042195738624941206,2.033128559154632,-0.2209648718186526,1.1523794518706227,0.538382364535243,-0.5844668704843423
Encode-Decode_Experiment-15-1,2386442,encoding,5.329251,0.708333,0.202167,0.094979,24,17,False,0.119667,0.143727,49,4,53,53,1.0,0.121483,1.0,4191.0,3.0,3.0,What is the person on the right wearing?,1.0,2598.0,1.0,1.0,Who is brushing their teeth in the scene?,7.0,2.0,,,,,0.5789473684210527,0.42857142857142855,0.5714285714285714,11.0,3.0,8.0,2.9180839473684212,2.411167052631579,2.785949873709756,2.126720692431612,3.5229351202578174,1.0081877715287586,-0.8319240016173917,0.538382364535243,1.8031859256447853
Encode-Decode_Experiment-15-1,2385550,encoding,-0.241808,0.076923,0.098077,0.087482,13,1,False,0.219235,0.15114,7,30,38,37,0.9737,0.176826,1.0,3406.0,4.0,4.0,Where are the tangerines in the scene?,1.0,3460.0,3.0,3.0,Which side of the frame is the boy on? (from your perspective),9.0,2.0,,,,,0.7058823529411765,0.6,0.75,12.0,3.0,9.0,1.7045187368421055,-1.9463267368421056,-1.0778867385772313,-1.7167177782050913,0.7295478181893448,0.717218243895663,0.33240774993189104,0.538382364535243,0.4398621331126185
Encode-Decode_Experiment-15-1,2362704,encoding,-0.729997,0.190476,0.26981,0.108676,21,4,False,0.178577,0.16486,13,21,34,34,1.0,0.170104,1.0,1438.0,2.0,2.0,How many bears are in the scene?,1.0,2827.0,4.0,4.0,What are the bears doing with the pumpkins?,11.0,2.0,,,,,0.5,0.16666666666666666,0.6666666666666666,5.0,1.0,4.0,0.16786689473684208,-0.897863894736842,-1.4164727294841257,-0.791942525027464,-0.015355462362247916,1.0081877715287586,-0.1430401887079403,0.538382364535243,-1.2864184153153637
Encode-Decode_Experiment-15-1,2410309,encoding,0.413012,0.25,0.201,0.11864,16,4,False,0.325309,0.279604,6,23,30,29,0.9667,0.288897,1.0,4005.0,2.0,2.0,What is the baby touching?,1.0,3441.0,4.0,4.0,How many laptops or electronic devices are visible?,12.0,2.0,,,,,0.6111111111111112,0.5555555555555556,0.5454545454545454,11.0,5.0,6.0,0.31938894736842105,0.09362305263157894,-0.6237329609098677,0.08257830294374734,-0.7602587429138407,0.6397738829286793,1.5728195912246619,0.538382364535243,-1.1161979626737186
Encode-Decode_Experiment-15-1,2412687,encoding,2.720342,0.647059,0.313882,0.122476,17,11,False,0.14633,0.40504,30,2,35,32,0.9143,0.15471,1.0,3573.0,4.0,4.0,What is the dog biting onto in the scene?,1.0,4651.0,3.0,3.0,What is the human's body position?,13.0,2.0,,,,,0.5294117647058824,0.8,0.5,9.0,4.0,5.0,1.3483974210526317,1.3719445789473683,0.9765276234113782,1.2100957176452296,0.17087035777565027,0.060047523690116275,-0.5201312821537235,0.538382364535243,0.03979408680376899
Encode-Decode_Experiment-15-1,2409918,encoding,2.357866,0.521739,0.277652,0.10352,23,12,False,0.12614,0.121713,23,9,39,32,0.8205,0.14756,0.0,6143.0,4.0,2.0,What is the elephant on the right (from your perspective) doing with its trunk?,1.0,5553.0,4.0,4.0,Where are the elephants in the scene?,14.0,1.0,,,,,0.5714285714285714,0.5555555555555556,0.6,12.0,5.0,6.0,2.2261904736842104,0.1316755263157896,0.7251305299906591,0.11614171079393981,0.915773638327243,-0.9777069132674641,-0.7562298084250154,-1.6380569814582917,1.025910154726533
Encode-Decode_Experiment-15-1,2344622,encoding,1.846181,0.388889,0.193167,0.106015,18,7,False,0.164272,0.119036,15,16,35,31,0.8857,0.154646,1.0,5472.0,2.0,2.0,Where is the cat located?,1.0,3186.0,4.0,4.0,What is the cat resting its head on?,15.0,2.0,,,,,0.625,0.7142857142857143,0.5555555555555556,10.0,5.0,5.0,0.41730294736842105,1.428878052631579,0.370248767482298,1.2603127262278873,0.17087035777565027,-0.25636800826070205,-0.31032049669758055,0.538382364535243,-1.0062010011061555
Encode-Decode_Experiment-15-1,150472,encoding,1.306447,0.423077,0.290346,0.101597,26,11,False,0.069874,0.099435,27,12,39,39,1.0,0.07897,1.0,4101.0,2.0,2.0,Where is the pizza slice located?,1.0,2987.0,4.0,4.0,How many women are in the scene?,16.0,2.0,,,,,0.6111111111111112,0.5,0.8,11.0,3.0,8.0,0.9545323684210526,0.3519146315789473,-0.004086523186155802,0.31039911902062317,0.915773638327243,1.0081877715287586,-1.4141951219059725,0.538382364535243,-0.40267541762993775
Encode-Decode_Experiment-15-1,2379478,encoding,2.059029,0.5,0.25655,0.118235,20,10,False,0.367436,0.24903,29,8,43,37,0.8605,0.325753,1.0,3396.0,4.0,4.0,What is the position of the babies?,1.0,2596.0,2.0,2.0,How many babies are visible in the scene?,18.0,2.0,,,,,0.0,0.0,0.0,0.0,0.0,0.0,2.2127313684210526,-0.15370236842105234,0.5178705922111443,-0.13557003735599152,1.6606769188788357,-0.5351677077418431,2.0654457733064207,0.538382364535243,1.0107901444689051
Encode-Decode_Experiment-15-1,2385851,encoding,-1.46333,0.05,0.19455,0.098782,20,1,False,0.317342,0.201548,3,28,37,31,0.8378,0.242951,1.0,5086.0,3.0,3.0,Where are the men?,1.0,2998.0,2.0,2.0,What are the men doing with the suitcases?,21.0,2.0,,,,,0.7857142857142857,0.7142857142857143,0.75,11.0,5.0,6.0,-0.09687957894736844,-1.3664504210526316,-1.925079601965328,-1.2052497077972308,0.5433219980514467,-0.7863087068776333,1.479654808718303,0.538382364535243,-1.5838356150109119
Encode-Decode_Experiment-15-1,2383555,encoding,1.462279,0.1,0.0349,0.04452,20,2,False,0.168497,0.179873,10,35,49,45,0.9184,0.184244,1.0,3426.0,2.0,2.0,Who is holding the child in the boat?,1.0,5662.0,4.0,4.0,What is the woman at the back doing in the boat?,22.0,2.0,,,,,0.5,0.5,0.5384615384615384,11.0,4.0,7.0,0.08705284210526318,1.375226157894737,0.10399156160273382,1.2129901673863206,2.778031839706225,0.10540779225649231,-0.2609140443203537,0.538382364535243,-1.377205230698606
Encode-Decode_Experiment-15-1,2397102,encoding,2.239179,0.6,0.33215,0.11962,20,12,False,0.108911,0.125918,31,4,35,35,1.0,0.110855,1.0,2329.0,1.0,1.0,What are the couple doing with the cake?,1.0,3435.0,3.0,3.0,What is the man holding besides the cake knife?,23.0,2.0,,,,,0.7142857142857143,1.0,0.5,15.0,6.0,9.0,2.2877332105263157,-0.0485542105263157,0.6428145509277007,-0.042826250515614686,0.17087035777565027,1.0081877715287586,-0.9577028896101613,0.538382364535243,1.0950475003480344
Encode-Decode_Experiment-15-1,2348899,encoding,2.156522,0.5,0.255389,0.113428,18,9,False,0.190768,0.093918,20,14,34,34,1.0,0.150888,1.0,4196.0,1.0,1.0,Where is the woman located relative to the man? (from your perspective),1.0,2770.0,4.0,4.0,What is the woman doing?,25.0,2.0,,,,,0.44,0.5,0.4117647058823529,11.0,4.0,7.0,3.229555894736842,-1.073033894736842,0.5854873636080535,-0.9464476487129644,-0.015355462362247916,1.0081877715287586,-0.0004806476592371156,0.538382364535243,2.1530947009379826
