SubjectID,StimID,Phase,svg_z_enc,svg_obs,svg_null_mean,svg_null_std,n_transitions,n_relational,low_n_enc,mean_salience_relational_enc,mean_salience_nonrelational,n_relational_fixations,n_nonrelational_fixations,n_fixations_enc,n_aoi,aoi_prop_enc,mean_salience_enc,enc_q1_accuracy,enc_q1_rt_ms,enc_q1_response,enc_q1_correct_key,enc_q1_question,enc_q2_accuracy,enc_q2_rt_ms,enc_q2_response,enc_q2_correct_key,enc_q2_question,enc_trial_index,enc_total_correct,dec_free_response,dec_rt_ms,dec_trial_index,dec_cue_question,prop_total,prop_relations,prop_objects,n_total_recalled,n_relations_recalled,n_objects_recalled,svg_z_enc_image_mean,svg_z_enc_within,svg_z_enc_z,svg_z_enc_within_z,n_fixations_enc_z,aoi_prop_enc_z,mean_salience_relational_enc_z,enc_total_correct_z,svg_z_enc_image_mean_z
Encode-Decode_Experiment-1-1,2371471,encoding,2.189755,0.6,0.36176,0.108798,25,15,False,0.319333,0.381878,29,5,34,34,1.0,0.32853,1.0,7851.0,3.0,3.0,What is nearest to the motorcyclists?,1.0,12421.0,2.0,2.0,What stunt is one motorcyclist performing?,1.0,2.0,,,,,0.1,0.0,0.13333333333333333,2.0,0.0,2.0,1.7589963333333334,0.4307586666666665,0.6012668837799221,0.37947143193432614,-0.027841797490394334,1.0051744825121949,1.4718766068201143,0.5065908582277417,0.4835921773609998
Encode-Decode_Experiment-1-1,2387122,encoding,-0.330065,0.347826,0.387522,0.120266,23,8,False,0.316857,0.346243,16,13,33,29,0.8788,0.308556,1.0,7463.0,1.0,1.0,What is the polar bear doing next to the enclosure edge?,1.0,5668.0,3.0,3.0,Where is the polar bear located in the scene?,2.0,2.0,,,,,0.6470588235294118,0.4,0.6666666666666666,11.0,2.0,8.0,0.8259124375,-1.1559774375,-1.1066345592301672,-1.0183437907039166,-0.21875698028166665,-0.32413595257332195,1.4431962097555127,0.5065908582277417,-0.5072697016174126
Encode-Decode_Experiment-1-1,2374670,encoding,-0.476733,0.3,0.35995,0.125752,20,6,False,0.196744,0.192463,22,14,39,36,0.9231,0.212175,0.0,6044.0,4.0,1.0,What vehicle sprays water in the scene?,1.0,9310.0,3.0,3.0,Where is the man standing relative to the vehicle?,3.0,1.0,,,,,0.21052631578947367,0.14285714285714285,0.2727272727272727,4.0,1.0,3.0,1.2259038125,-1.7026368125,-1.2060442348591423,-1.4999164945494738,0.9267341164659673,0.161742366521467,0.05188420142734766,-1.7242679669953416,-0.08251024839194197
Encode-Decode_Experiment-1-1,2356991,encoding,2.017518,0.321429,0.158786,0.080615,28,9,False,0.148569,0.176891,13,20,37,33,0.8919,0.161358,1.0,10953.0,1.0,1.0,How is the player on the left (from your perspective) reaching the base?,1.0,6687.0,2.0,2.0,What is the current action of the gloved player on the base?,4.0,2.0,,,,,0.7333333333333333,0.5714285714285714,0.5,11.0,4.0,5.0,0.934694125,1.0828238749999999,0.4845268702711283,0.9539000795006466,0.5449037508834227,-0.18045635934213156,-0.5061441219115861,0.5065908582277417,-0.3917520855102052
Encode-Decode_Experiment-1-1,2412687,encoding,2.830765,0.666667,0.3048,0.127834,15,10,False,0.144164,0.08408,17,9,29,26,0.8966,0.127853,1.0,9147.0,3.0,3.0,What is the human's body position?,1.0,5930.0,4.0,4.0,What is the dog biting onto in the scene?,5.0,2.0,,,,,0.4666666666666667,0.5,0.4444444444444444,7.0,2.0,4.0,1.4683525,1.3624125,1.0357351807153767,1.2002001637271573,-0.9824177114467559,-0.1289071923049877,-0.5571688186278915,0.5065908582277417,0.17495123296558238
Encode-Decode_Experiment-1-1,2360001,encoding,-0.770094,0.041667,0.092708,0.06628,24,1,False,0.315042,0.283575,2,35,38,37,0.9737,0.279301,1.0,11249.0,4.0,4.0,What are the workers doing to the clock?,1.0,4944.0,4.0,4.0,Where are the men standing?,6.0,2.0,,,,,0.6,0.75,0.5454545454545454,9.0,3.0,6.0,1.297036375,-2.067130375,-1.4048805307941228,-1.8210125160480986,0.735818933674695,0.7167185052617899,1.4221724130381246,0.5065908582277417,-0.006973048736007721
Encode-Decode_Experiment-1-1,2397102,encoding,3.190341,0.571429,0.227286,0.10787,21,12,False,0.137035,0.164877,24,11,35,35,1.0,0.145785,1.0,4439.0,1.0,1.0,What are the couple doing with the cake?,1.0,4350.0,3.0,3.0,What is the man holding besides the cake knife?,7.0,2.0,,,,,0.5714285714285714,0.6,0.47368421052631576,12.0,3.0,9.0,2.3538833125,0.8364576875000003,1.2794511482336106,0.7368668839197671,0.163073385300878,1.0051744825121949,-0.639746585458888,0.5065908582277417,1.1153154688989366
Encode-Decode_Experiment-1-1,150472,encoding,1.668758,0.35,0.19075,0.09543,20,7,False,0.0896,0.086865,13,17,30,30,1.0,0.08805,1.0,3118.0,4.0,4.0,How many women are in the scene?,1.0,3643.0,2.0,2.0,Where is the pizza slice located?,8.0,2.0,,,,,0.5,0.5,0.5,8.0,2.0,5.0,0.6874455,0.9813124999999999,0.24814184782341428,0.8644749098877953,-0.7915025286554837,1.0051744825121949,-1.1892032230838454,0.5065908582277417,-0.6543107238452179
Encode-Decode_Experiment-1-1,2379478,encoding,3.182431,0.866667,0.396667,0.147686,15,13,False,0.395444,,34,0,35,34,0.9714,0.406243,1.0,4689.0,4.0,4.0,What is the position of the babies?,1.0,2082.0,2.0,2.0,How many babies are visible in the scene?,9.0,2.0,,,,,0.6923076923076923,0.8,0.5,9.0,4.0,5.0,2.2224776875,0.9599533124999997,1.274089852421128,0.8456588021857746,0.163073385300878,0.6914923171372301,2.353497649220729,0.5065908582277417,0.9757730064502123
Encode-Decode_Experiment-1-1,2369373,encoding,1.123483,0.6,0.46848,0.117064,25,15,False,0.238755,0.215394,30,10,40,40,1.0,0.232915,1.0,6485.0,3.0,3.0,What tool is the chef using?,1.0,4938.0,3.0,3.0,What is the appearance of the oven?,10.0,2.0,,,,,0.0,0.0,0.0,0.0,0.0,0.0,0.9177070625,0.2057759375,-0.12143850289105197,0.18127572514096083,1.1176492992572395,1.0051744825121949,0.5385126994406729,0.5065908582277417,-0.40979101292309483
Encode-Decode_Experiment-1-1,2347025,encoding,0.098753,0.473684,0.460684,0.131642,19,9,False,0.098077,0.100803,26,11,39,37,0.9487,0.101181,1.0,4866.0,1.0,1.0,Where is the baby in relation to the mother?,1.0,5607.0,2.0,2.0,Who is holding the umbrella in the scene?,11.0,2.0,,,,,0.4,0.5,0.3333333333333333,6.0,2.0,4.0,0.81722825,-0.71847525,-0.8159872586338148,-0.6329317388705038,0.9267341164659673,0.44252080825570117,-1.0910110882225244,0.5065908582277417,-0.5164916273007039
Encode-Decode_Experiment-1-1,2349475,encoding,1.168152,0.291667,0.184917,0.091384,24,7,False,0.089086,0.054041,15,21,37,36,0.973,0.070533,1.0,4998.0,3.0,3.0,Which part of the blender is the woman holding?,0.0,14841.0,2.0,1.0,What is the man doing to power the blender?,12.0,1.0,,,,,0.6,0.5,0.7,12.0,5.0,7.0,1.223761,-0.05560900000000002,-0.091162431759853,-0.048988049437819675,0.5449037508834227,0.7090409697456191,-1.195157069647337,-1.7242679669953416,-0.0847857471220449
Encode-Decode_Experiment-1-1,2394020,encoding,1.776663,0.615385,0.351692,0.14842,13,8,False,0.183927,0.232903,24,3,33,27,0.8182,0.211957,1.0,11365.0,1.0,1.0,Where is the scene taking place?,1.0,3777.0,2.0,2.0,What are the riders wearing on their heads?,13.0,2.0,,,,,0.5,0.3333333333333333,0.4444444444444444,6.0,1.0,4.0,1.9072669375,-0.13060393749999988,0.32127846282289996,-0.11505389679771087,-0.21875698028166665,-0.9887911701160804,-0.09657971181053737,0.5065908582277417,0.641043924302402
Encode-Decode_Experiment-1-1,2362704,encoding,-0.792589,0.045455,0.099455,0.068131,22,1,False,0.209003,0.157402,2,24,28,26,0.9286,0.175742,1.0,4644.0,4.0,4.0,What are the bears doing with the pumpkins?,1.0,3040.0,2.0,2.0,How many bears are in the scene?,16.0,2.0,,,,,0.6666666666666666,0.2,0.7142857142857143,6.0,1.0,5.0,0.2910766875,-1.0836656875,-1.4201273511862589,-0.954641663639318,-1.1733328942380283,0.22206585986280591,0.19388460030253157,0.5065908582277417,-1.0752232999554632
Encode-Decode_Experiment-1-1,2385550,encoding,2.217431,0.391304,0.199174,0.086646,23,9,False,0.279624,0.292266,19,13,34,32,0.9412,0.305476,1.0,6081.0,3.0,3.0,Which side of the frame is the boy on? (from your perspective),1.0,4534.0,4.0,4.0,Where are the tangerines in the scene?,17.0,2.0,,,,,0.6666666666666666,1.0,0.5833333333333334,10.0,3.0,7.0,1.8450925,0.3723384999999999,0.62002531903988,0.3280069205632832,-0.027841797490394334,0.3602614991538752,1.0119130013926994,0.5065908582277417,0.575019550459088
Encode-Decode_Experiment-1-1,2410309,encoding,2.29324,0.36,0.16272,0.086027,25,9,False,0.292115,0.298995,17,17,36,34,0.9444,0.285861,1.0,3857.0,2.0,2.0,What is the baby touching?,1.0,3350.0,4.0,4.0,How many laptops or electronic devices are visible?,20.0,2.0,,,,,0.5333333333333333,0.2857142857142857,0.75,8.0,2.0,6.0,0.29547375,1.99776625,0.6714076798803972,1.7599070621699293,0.35398856809215035,0.3953588043706543,1.1566007395728062,0.5065908582277417,-1.0705539646146744
Encode-Decode_Experiment-1-1,2356125,encoding,1.7459,0.32,0.18104,0.079592,25,8,False,0.342058,0.22663,18,15,34,33,0.9706,0.284523,1.0,3847.0,2.0,2.0,How many uniformed staff are moving the luggage?,1.0,5075.0,1.0,1.0,Where is the luggage being moved to?,22.0,2.0,,,,,0.7,0.5714285714285714,0.6923076923076923,14.0,4.0,9.0,0.9290526875,0.8168473125,0.30042769884320314,0.7195913706036816,-0.027841797490394334,0.6827179908330351,1.7351084417526992,0.5065908582277417,-0.39774284945581695
Encode-Decode_Experiment-1-1,2348899,encoding,4.591028,0.75,0.2456,0.109866,20,15,False,0.217957,0.119061,28,4,32,32,1.0,0.205595,1.0,5228.0,4.0,4.0,What is the woman doing?,1.0,9034.0,1.0,1.0,Where is the woman located relative to the man? (from your perspective),23.0,2.0,,,,,0.6086956521739131,0.6666666666666666,0.5882352941176471,14.0,4.0,10.0,3.2167180625,1.3743099374999996,2.228818701672139,1.2106810617190893,-0.40967216307293897,1.0051744825121949,0.29760199744164567,0.5065908582277417,2.031578267400369
Encode-Decode_Experiment-1-1,2350974,encoding,4.20909,0.736842,0.259579,0.113389,19,14,False,0.272914,0.241189,26,5,38,31,0.8158,0.278012,1.0,5186.0,4.0,4.0,Between which two objects is the child standing?,1.0,8762.0,1.0,1.0,What is the child up against?,24.0,2.0,,,,,0.5833333333333334,0.5,0.5,7.0,2.0,5.0,2.4937864375,1.7153035625,1.9699460594435723,1.5110751087165422,0.735818933674695,-1.0151141490286657,0.9341886620132652,0.5065908582277417,1.2638816095551813
Encode-Decode_Experiment-1-1,2383555,encoding,-0.030115,0.2,0.2028,0.092978,25,5,False,0.211438,0.14111,10,23,34,33,0.9706,0.165578,0.0,7759.0,3.0,2.0,Who is holding the child in the boat?,1.0,4709.0,4.0,4.0,What is the woman at the back doing in the boat?,26.0,1.0,,,,,0.6111111111111112,0.6666666666666666,0.6363636363636364,11.0,4.0,7.0,0.117122375,-0.147237375,-0.903332324217001,-0.12970691444900634,-0.027841797490394334,0.6827179908330351,0.22209007964514288,-1.7242679669953416,-1.2599491297654501
Encode-Decode_Experiment-1-1,2409918,encoding,2.408731,0.473684,0.224211,0.103571,19,9,False,0.169894,0.098334,25,10,35,35,1.0,0.149448,1.0,9968.0,4.0,4.0,Where are the elephants in the scene?,1.0,6438.0,2.0,2.0,What is the elephant on the right (from your perspective) doing with its trunk?,27.0,2.0,,,,,0.625,0.6666666666666666,0.6,10.0,4.0,6.0,2.0625840625,0.3461469374999999,0.7496859876780487,0.30493379285726896,0.163073385300878,1.0051744825121949,-0.25912898968111897,0.5065908582277417,0.805978523433576
Encode-Decode_Experiment-1-1,2347400,encoding,0.212464,0.222222,0.199444,0.107208,18,4,False,0.198821,0.245429,9,18,30,27,0.9,0.241136,1.0,3779.0,3.0,3.0,What are the men doing with the wine?,1.0,2865.0,1.0,1.0,What are the men sitting on in the scene?,31.0,2.0,,,,,0.5,0.375,0.5,10.0,3.0,6.0,0.8918465,-0.6793825,-0.7389154118407423,-0.598493472229127,-0.7915025286554837,-0.09161630551215891,0.07594283822184611,0.5065908582277417,-0.4372529010390651
Encode-Decode_Experiment-1-1,2408717,encoding,1.46445,0.363636,0.219955,0.098113,22,8,False,0.193703,0.220917,21,11,37,32,0.8649,0.207272,1.0,2675.0,2.0,2.0,How many surfers are in the scene?,1.0,4633.0,3.0,3.0,What are the surfers doing with the surfboards?,32.0,2.0,,,,,0.5333333333333333,0.4,0.5555555555555556,8.0,2.0,5.0,0.3560793125,1.1083706875,0.10966452483268273,0.9764052227999095,0.5449037508834227,-0.4765898721087074,0.01665920648653383,0.5065908582277417,-1.0061956129129106
Encode-Decode_Experiment-1-1,2386442,encoding,2.947547,0.769231,0.331385,0.148546,13,10,False,0.136657,0.144387,33,3,37,36,0.973,0.134292,1.0,6336.0,3.0,3.0,What is the person on the right wearing?,1.0,6401.0,1.0,1.0,Who is brushing their teeth in the scene?,33.0,2.0,,,,,0.4117647058823529,0.3333333333333333,0.38461538461538464,7.0,2.0,5.0,2.8865960625000002,0.06095093749999991,1.1148885116348888,0.053693962120006704,0.5449037508834227,0.7090409697456191,-0.6441250951884596,0.5065908582277417,1.6810146078272123
Encode-Decode_Experiment-1-1,2385851,encoding,0.29707,0.12,0.1012,0.063285,25,3,False,0.16401,0.12087,6,22,31,28,0.9032,0.15682,1.0,6572.0,3.0,3.0,Where are the men?,1.0,3877.0,2.0,2.0,What are the men doing with the suitcases?,35.0,2.0,,,,,0.35714285714285715,0.2,0.4444444444444444,5.0,1.0,4.0,-0.23973612500000002,0.536806125,-0.6815705580466969,0.4728926071323779,-0.6005873458642114,-0.05651900029537978,-0.3272854744663039,0.5065908582277417,-1.6389048543454157
Encode-Decode_Experiment-1-1,2344622,encoding,0.018231,0.333333,0.330417,0.159986,12,4,False,0.169364,0.246224,9,10,24,19,0.7917,0.254556,1.0,3713.0,4.0,4.0,What is the cat resting its head on?,1.0,8759.0,2.0,2.0,Where is the cat located?,37.0,2.0,,,,,0.42857142857142855,0.4,0.4444444444444444,6.0,2.0,4.0,0.402355875,-0.384124875,-0.8705640299881411,-0.3383899794421101,-1.9369936254031177,-1.2794407289425351,-0.2652681699897777,0.5065908582277417,-0.9570535348252159
Encode-Decode_Experiment-1-1,2411268,encoding,2.743085,0.6,0.2838,0.115272,20,12,False,0.159698,0.437671,23,8,32,31,0.9688,0.234453,0.0,9988.0,1.0,4.0,Where is the fruit branch relative to the child?,1.0,7151.0,2.0,2.0,What is the child holding while picking fruit?,38.0,1.0,,,,,0.5,0.3333333333333333,0.6,8.0,2.0,6.0,1.7027574375,1.0403275625000001,0.9763068094336487,0.9164634872642277,-0.40967216307293897,0.6629757566485964,-0.3772329187888254,-1.7242679669953416,0.42387088301016324
Encode-Decode_Experiment-1-1,2345035,encoding,-0.53349,0.25,0.305964,0.104902,28,7,False,0.234224,0.247613,15,21,41,36,0.878,0.23046,1.0,6065.0,3.0,3.0,What are the people doing with the football?,1.0,5287.0,2.0,2.0,Who runs toward the football in the scene?,42.0,2.0,,,,,0.38095238095238093,0.2,0.4666666666666667,8.0,1.0,7.0,0.058984562500000004,-0.5924745625000001,-1.244513396228178,-0.5219330172885789,1.308564482048512,-0.332910278877517,0.48602849948117705,0.5065908582277417,-1.3216869246097138
Encode-Decode_Experiment-1-1,2370664,encoding,4.605735,0.555556,0.141389,0.089924,18,10,False,0.144682,0.152652,28,12,40,40,1.0,0.147073,1.0,3329.0,1.0,1.0,Where are the people located in the scene?,1.0,3201.0,4.0,4.0,How many donuts are in the scene?,45.0,2.0,,,,,0.8235294117647058,0.5714285714285714,0.75,14.0,4.0,9.0,0.72850225,3.87723275,2.238786916275702,3.4155994468329496,1.1176492992572395,1.0051744825121949,-0.5511686386281078,0.5065908582277417,-0.6107116770377341
Encode-Decode_Experiment-1-1,2367132,encoding,2.469503,0.380952,0.154952,0.091516,21,8,False,0.120313,0.081787,21,15,37,36,0.973,0.103802,1.0,4443.0,4.0,4.0,In which hand(s) are the men holding the controllers?,1.0,3240.0,2.0,2.0,How many men are playing in the scene?,46.0,2.0,,,,,0.6470588235294118,0.6,0.6666666666666666,11.0,3.0,8.0,3.4291268125,-0.9596238124999998,0.7908764641781992,-0.8453685333032239,0.5449037508834227,0.7090409697456191,-0.8334435158766076,0.5065908582277417,2.2571396923443587
Encode-Decode_Experiment-10-1,2362704,encoding,1.880256,0.333333,0.182967,0.079971,30,10,False,0.248115,0.1542,17,17,35,34,0.9714,0.199018,1.0,4528.0,4.0,4.0,What are the bears doing with the pumpkins?,1.0,2438.0,2.0,2.0,How many bears are in the scene?,1.0,2.0,,,,,0.3333333333333333,0.2,0.2857142857142857,3.0,1.0,2.0,0.2910766875,1.5891793125,0.3914924599281471,1.3999675363036608,0.163073385300878,0.6914923171372301,0.646932940363401,0.5065908582277417,-1.0752232999554632
Encode-Decode_Experiment-10-1,150472,encoding,-0.859561,0.15,0.24775,0.113721,20,3,False,0.087219,0.075484,5,23,31,28,0.9032,0.092926,1.0,3338.0,2.0,2.0,Where is the pizza slice located?,1.0,2893.0,4.0,4.0,How many women are in the scene?,2.0,2.0,,,,,0.5625,0.75,0.6,9.0,3.0,6.0,0.6874455,-1.5470065000000002,-1.4655201075899986,-1.3628159273252238,-0.6005873458642114,-0.05651900029537978,-1.2167832010365178,0.5065908582277417,-0.6543107238452179
Encode-Decode_Experiment-10-1,2370664,encoding,-0.010006,0.214286,0.2155,0.121359,14,3,False,0.069476,0.126217,6,16,26,22,0.8462,0.122232,1.0,3833.0,1.0,1.0,Where are the people located in the scene?,0.0,2566.0,3.0,4.0,How many donuts are in the scene?,4.0,1.0,,,,,0.29411764705882354,0.14285714285714285,0.25,5.0,1.0,3.0,0.72850225,-0.73850825,-0.8897027038006659,-0.6505795583671291,-1.555163259820573,-0.6816897494692622,-1.4223067410677106,-1.7242679669953416,-0.6107116770377341
Encode-Decode_Experiment-10-1,2379478,encoding,0.921081,0.35,0.2475,0.111282,20,7,False,0.319026,0.389875,18,12,31,30,0.9677,0.355879,1.0,2007.0,2.0,2.0,How many babies are visible in the scene?,1.0,5045.0,4.0,4.0,What is the position of the babies?,5.0,2.0,,,,,0.0,0.0,0.0,0.0,0.0,0.0,2.2224776875,-1.3013966875,-0.2586239637049705,-1.1464490507915042,-0.6005873458642114,0.6509110579803287,1.4683205155847214,0.5065908582277417,0.9757730064502123
Encode-Decode_Experiment-10-1,2412687,encoding,0.594297,0.416667,0.326083,0.152421,12,5,False,0.123179,0.199847,12,4,28,16,0.5714,0.119551,1.0,3895.0,3.0,3.0,What is the human's body position?,1.0,3399.0,4.0,4.0,What is the dog biting onto in the scene?,6.0,2.0,,,,,0.0,0.0,0.0,0.0,0.0,0.0,1.4683525,-0.8740555,-0.4801139372557039,-0.7699882041647609,-1.1733328942380283,-3.6956708349601866,-0.8002456087735588,0.5065908582277417,0.17495123296558238
Encode-Decode_Experiment-10-1,2347025,encoding,0.508345,0.52381,0.460143,0.125243,21,11,False,0.125089,0.154398,28,6,34,34,1.0,0.130261,1.0,3994.0,1.0,1.0,Where is the baby in relation to the mother?,0.0,4496.0,3.0,2.0,Who is holding the umbrella in the scene?,7.0,1.0,,,,,0.5333333333333333,0.5,0.5,8.0,2.0,6.0,0.81722825,-0.30888324999999994,-0.538371092461077,-0.2721068158304305,-0.027841797490394334,1.0051744825121949,-0.7781213929442413,-1.7242679669953416,-0.5164916273007039
Encode-Decode_Experiment-10-1,2356125,encoding,2.47984,0.5,0.243727,0.103342,22,11,False,0.235264,0.258587,25,10,37,35,0.9459,0.249079,1.0,2514.0,1.0,1.0,Where is the luggage being moved to?,1.0,3297.0,2.0,2.0,How many uniformed staff are moving the luggage?,8.0,2.0,,,,,0.45,0.42857142857142855,0.46153846153846156,9.0,3.0,6.0,0.9290526875,1.5507873124999998,0.7978827492368125,1.366146586565007,0.5449037508834227,0.41181066619101897,0.49807519291703584,0.5065908582277417,-0.39774284945581695
Encode-Decode_Experiment-10-1,2350974,encoding,2.945957,0.8,0.3145,0.164802,10,8,False,0.256598,,19,0,25,19,0.76,0.238674,1.0,2261.0,1.0,1.0,What is the child up against?,1.0,4270.0,4.0,4.0,Between which two objects is the child standing?,9.0,2.0,,,,,0.0,0.0,0.0,0.0,0.0,0.0,2.4937864375,0.4521705625000001,1.1138108301757423,0.39833397237995166,-1.7460784426118452,-1.6271234087462547,0.7451945753791596,0.5065908582277417,1.2638816095551813
Encode-Decode_Experiment-10-1,2383555,encoding,0.816161,0.285714,0.199952,0.10508,21,6,False,0.302928,0.158923,10,16,32,26,0.8125,0.204814,1.0,3491.0,2.0,2.0,Who is holding the child in the boat?,1.0,4016.0,4.0,4.0,What is the woman at the back doing in the boat?,10.0,2.0,,,,,0.3888888888888889,0.3333333333333333,0.45454545454545453,7.0,2.0,5.0,0.117122375,0.699038625,-0.3297373842670021,0.6158092884325466,-0.40967216307293897,-1.051308245033469,1.2818516012285168,0.5065908582277417,-1.2599491297654501
Encode-Decode_Experiment-10-1,2369373,encoding,2.615965,0.777778,0.427389,0.133942,18,14,False,0.261421,0.402052,24,1,26,25,0.9615,0.261874,1.0,4815.0,3.0,3.0,What is the appearance of the oven?,1.0,4239.0,3.0,3.0,What tool is the chef using?,11.0,2.0,,,,,0.4666666666666667,0.3333333333333333,0.5,7.0,1.0,6.0,0.9177070625,1.6982579375000002,0.890146515668442,1.4960589796691124,-1.555163259820573,0.5829100291228189,0.8010611161879543,0.5065908582277417,-0.40979101292309483
Encode-Decode_Experiment-10-1,2385550,encoding,0.843475,0.388889,0.287722,0.11994,18,7,False,0.276524,0.262302,14,14,32,28,0.875,0.277336,1.0,4548.0,3.0,3.0,Which side of the frame is the boy on? (from your perspective),1.0,3141.0,4.0,4.0,Where are the tangerines in the scene?,13.0,2.0,,,,,1.0,1.0,1.0,15.0,3.0,12.0,1.8450925,-1.0016175,-0.3112243079304473,-0.8823623443648572,-0.40967216307293897,-0.3658140025182477,0.9760045882665823,0.5065908582277417,0.575019550459088
Encode-Decode_Experiment-10-1,2348899,encoding,4.18893,0.608696,0.217739,0.093331,23,14,False,0.201666,0.175792,22,6,28,28,1.0,0.196122,1.0,6102.0,1.0,1.0,Where is the woman located relative to the man? (from your perspective),1.0,3203.0,4.0,4.0,What is the woman doing?,14.0,2.0,,,,,0.5652173913043478,0.5,0.5882352941176471,13.0,3.0,10.0,3.2167180625,0.9722119375,1.9562818718860948,0.8564578837650101,-1.1733328942380283,1.0051744825121949,0.10889749478436349,0.5065908582277417,2.031578267400369
Encode-Decode_Experiment-10-1,2411268,encoding,0.473765,0.461538,0.388769,0.153598,13,6,False,0.243625,0.288897,16,9,26,25,0.9615,0.264995,1.0,6114.0,4.0,4.0,Where is the fruit branch relative to the child?,0.0,23799.0,1.0,2.0,What is the child holding while picking fruit?,15.0,1.0,,,,,0.625,0.6666666666666666,0.5,10.0,4.0,5.0,1.7027574375,-1.2289924375,-0.5618089697298061,-1.0826654370148088,-1.555163259820573,0.5829100291228189,0.5949236581258959,-1.7242679669953416,0.42387088301016324
Encode-Decode_Experiment-10-1,2387122,encoding,-0.136416,0.421053,0.439421,0.13465,19,8,False,0.179375,0.28172,13,11,24,24,1.0,0.226283,1.0,4071.0,3.0,3.0,Where is the polar bear located in the scene?,1.0,3613.0,1.0,1.0,What is the polar bear doing next to the enclosure edge?,17.0,2.0,,,,,0.4117647058823529,0.4,0.4166666666666667,7.0,2.0,5.0,0.8259124375,-0.9623284375,-0.9753817687382033,-0.8477511386946313,-1.9369936254031177,1.0051744825121949,-0.1493071623105649,0.5065908582277417,-0.5072697016174126
Encode-Decode_Experiment-10-1,2349475,encoding,0.821209,0.153846,0.084154,0.084866,13,2,False,0.065656,0.09436,3,20,25,23,0.92,0.088054,1.0,2724.0,3.0,3.0,Which part of the blender is the woman holding?,1.0,3992.0,1.0,1.0,What is the man doing to power the blender?,18.0,2.0,,,,,0.75,0.6,0.9,15.0,6.0,9.0,1.223761,-0.40255200000000013,-0.32631591508098295,-0.3546231235464257,-1.7460784426118452,0.1277418520927121,-1.4665551727263453,0.5065908582277417,-0.0847857471220449
Encode-Decode_Experiment-10-1,2410309,encoding,0.661148,0.263158,0.192158,0.107389,19,5,False,0.287865,0.226602,11,15,26,26,1.0,0.252521,1.0,5188.0,2.0,2.0,What is the baby touching?,1.0,3019.0,4.0,4.0,How many laptops or electronic devices are visible?,20.0,2.0,,,,,0.8666666666666667,0.7142857142857143,1.0,13.0,5.0,8.0,0.29547375,0.36567425,-0.4348031930887922,0.32213613330823476,-1.555163259820573,1.0051744825121949,1.1073714635128065,0.5065908582277417,-1.0705539646146744
Encode-Decode_Experiment-10-1,2344622,encoding,-0.988013,0.25,0.386562,0.138219,16,4,False,0.153564,0.260008,8,17,31,25,0.8065,0.256139,1.0,3365.0,4.0,4.0,What is the cat resting its head on?,1.0,4642.0,2.0,2.0,Where is the cat located?,22.0,2.0,,,,,0.6428571428571429,0.6,0.6666666666666666,9.0,3.0,6.0,0.402355875,-1.390368875,-1.5525832137473958,-1.224827980817956,-0.6005873458642114,-1.1171156923149304,-0.4482852433422457,0.5065908582277417,-0.9570535348252159
Encode-Decode_Experiment-10-1,2397102,encoding,1.887584,0.5,0.27925,0.116948,20,10,False,0.116305,0.084022,27,5,34,32,0.9412,0.105677,1.0,2309.0,1.0,1.0,What are the couple doing with the cake?,1.0,3756.0,3.0,3.0,What is the man holding besides the cake knife?,23.0,2.0,,,,,0.0,0.0,0.0,0.0,0.0,0.0,2.3538833125,-0.4662993124999999,0.39645928365935723,-0.41078051706686536,-0.027841797490394334,0.3602614991538752,-0.8798696190409552,0.5065908582277417,1.1153154688989366
Encode-Decode_Experiment-10-1,2409918,encoding,-0.195526,0.352941,0.379176,0.134178,17,6,False,0.170519,0.124303,16,10,35,26,0.7429,0.131688,1.0,5345.0,4.0,4.0,Where are the elephants in the scene?,1.0,3997.0,2.0,2.0,What is the elephant on the right (from your perspective) doing with its trunk?,24.0,2.0,,,,,0.6875,0.6666666666666666,0.6,11.0,4.0,6.0,2.0625840625,-2.2581100625,-1.0154457631093592,-1.9892536707689055,0.163073385300878,-1.8146746334984194,-0.25188939026053064,0.5065908582277417,0.805978523433576
Encode-Decode_Experiment-10-1,2374670,encoding,0.029488,0.714286,0.709929,0.14776,14,10,False,0.17199,0.258162,17,7,28,24,0.8571,0.215653,1.0,4770.0,1.0,1.0,What vehicle sprays water in the scene?,1.0,5684.0,3.0,3.0,Where is the man standing relative to the vehicle?,25.0,2.0,,,,,0.3684210526315789,0.42857142857142855,0.36363636363636365,7.0,3.0,4.0,1.2259038125,-1.1964158125,-0.8629341808148016,-1.0539674687719467,-1.1733328942380283,-0.5621395535746073,-0.2348502690642344,0.5065908582277417,-0.08251024839194197
Encode-Decode_Experiment-10-1,2360001,encoding,2.026076,0.285714,0.104571,0.089406,14,4,False,0.261531,0.219258,9,14,23,23,1.0,0.235799,1.0,4442.0,4.0,4.0,Where are the men standing?,1.0,3459.0,4.0,4.0,What are the workers doing to the clock?,27.0,2.0,,,,,0.0,0.0,0.0,0.0,0.0,0.0,1.297036375,0.7290396250000002,0.49032737211224425,0.6422382922122232,-2.1279088081943898,1.0051744825121949,0.8023352856859778,0.5065908582277417,-0.006973048736007721
Encode-Decode_Experiment-10-1,2347400,encoding,0.444285,0.4,0.3264,0.165659,10,4,False,0.138936,0.267598,21,11,37,32,0.8649,0.188872,1.0,2603.0,1.0,1.0,What are the men sitting on in the scene?,1.0,4788.0,3.0,3.0,What are the men doing with the wine?,29.0,2.0,,,,,0.45,0.375,0.5,9.0,3.0,6.0,0.8918465,-0.4475615,-0.5817901328842923,-0.3942736767153649,0.5449037508834227,-0.4765898721087074,-0.617726619861227,0.5065908582277417,-0.4372529010390651
Encode-Decode_Experiment-10-1,2408717,encoding,-0.059029,0.222222,0.228778,0.111057,18,4,False,0.157241,0.270898,12,12,28,24,0.8571,0.215179,1.0,3635.0,2.0,2.0,How many surfers are in the scene?,1.0,2977.0,3.0,3.0,What are the surfers doing with the surfboards?,30.0,2.0,,,,,0.8666666666666667,0.6,1.0,13.0,3.0,9.0,0.3560793125,-0.4151083125,-0.9229298598835145,-0.36568444918628096,-1.1733328942380283,-0.5621395535746073,-0.4056932320310417,0.5065908582277417,-1.0061956129129106
Encode-Decode_Experiment-10-1,2394020,encoding,1.732468,0.8,0.4745,0.187882,10,8,False,0.252803,,15,0,19,15,0.7895,0.247894,1.0,3488.0,1.0,1.0,Where is the scene taking place?,1.0,3246.0,2.0,2.0,What are the riders wearing on their heads?,33.0,2.0,,,,,0.0,0.0,0.0,0.0,0.0,0.0,1.9072669375,-0.17479893750000008,0.2913236627682011,-0.1539869264314833,-2.8915695393594794,-1.3035701262790707,0.7012357276973484,0.5065908582277417,0.641043924302402
Encode-Decode_Experiment-10-1,2356991,encoding,2.220155,0.5,0.238,0.11801,16,8,False,0.128548,0.042288,20,10,31,30,0.9677,0.102377,1.0,5505.0,2.0,2.0,What is the current action of the gloved player on the base?,1.0,6324.0,1.0,1.0,How is the player on the left (from your perspective) reaching the base?,36.0,2.0,,,,,0.3333333333333333,0.2857142857142857,0.3,5.0,2.0,3.0,0.934694125,1.285460875,0.6218716110491346,1.1324105971134695,-0.6005873458642114,0.6509110579803287,-0.7380545539109384,0.5065908582277417,-0.3917520855102052
Encode-Decode_Experiment-10-1,2386442,encoding,-0.711952,0.545455,0.667818,0.171871,11,6,False,0.129535,0.134756,13,7,20,20,1.0,0.131362,1.0,4429.0,3.0,3.0,What is the person on the right wearing?,1.0,4695.0,1.0,1.0,Who is brushing their teeth in the scene?,37.0,2.0,,,,,0.23529411764705882,0.16666666666666666,0.23076923076923078,4.0,1.0,3.0,2.8865960625000002,-3.5985480625000004,-1.3654726343175916,-3.17009567498283,-2.700654356568207,1.0051744825121949,-0.7266217785059454,0.5065908582277417,1.6810146078272123
Encode-Decode_Experiment-10-1,2345035,encoding,-0.090433,0.277778,0.289611,0.130852,18,5,False,0.17469,0.20841,12,14,40,26,0.65,0.167931,0.0,3175.0,2.0,3.0,What are the people doing with the football?,1.0,6623.0,2.0,2.0,Who runs toward the football in the scene?,41.0,1.0,,,,,0.5238095238095238,0.4,0.6,11.0,2.0,9.0,0.058984562500000004,-0.1494175625,-0.9442150853822758,-0.13162752321797747,1.1176492992572395,-2.8335932755730444,-0.20357519956729353,-1.7242679669953416,-1.3216869246097138
Encode-Decode_Experiment-10-1,2371471,encoding,1.413843,0.4,0.1956,0.144571,10,4,False,0.148076,0.373248,31,14,45,45,1.0,0.218129,1.0,7062.0,2.0,2.0,What stunt is one motorcyclist performing?,1.0,4367.0,3.0,3.0,What is nearest to the motorcyclists?,42.0,2.0,,,,,0.4,0.6,0.3333333333333333,8.0,3.0,5.0,1.7589963333333334,-0.3451533333333334,0.07536375401317509,-0.30405848975816124,2.0722252132136014,1.0051744825121949,-0.511854717934546,0.5065908582277417,0.4835921773609998
Encode-Decode_Experiment-10-1,2385851,encoding,-0.674388,0.133333,0.215067,0.121196,15,2,False,0.367904,0.224178,6,13,30,19,0.6333,0.33537,1.0,5412.0,3.0,3.0,Where are the men?,1.0,2633.0,2.0,2.0,What are the men doing with the suitcases?,46.0,2.0,,,,,0.5,0.4,0.5555555555555556,7.0,2.0,5.0,-0.23973612500000002,-0.43465187499999997,-1.34001224039849,-0.38290110487045287,-0.7915025286554837,-3.016757337173112,2.0344919403519333,0.5065908582277417,-1.6389048543454157
Encode-Decode_Experiment-10-1,2367132,encoding,2.837132,0.5,0.165167,0.118018,12,6,False,0.105676,0.034278,11,11,22,22,1.0,0.069977,1.0,2315.0,2.0,2.0,How many men are playing in the scene?,0.0,7330.0,1.0,4.0,In which hand(s) are the men holding the controllers?,55.0,1.0,,,,,0.6470588235294118,0.6,0.6666666666666666,11.0,3.0,8.0,3.4291268125,-0.5919948124999999,1.0400506510615306,-0.5215103875574597,-2.318823990985662,1.0051744825121949,-1.0029891426272453,-1.7242679669953416,2.2571396923443587
Encode-Decode_Experiment-11-1,2370664,encoding,0.697606,0.153846,0.108385,0.065168,26,4,False,0.15941,0.163214,9,25,34,34,1.0,0.162207,1.0,2788.0,4.0,4.0,How many donuts are in the scene?,1.0,3789.0,1.0,1.0,Where are the people located in the scene?,1.0,2.0,,,,,0.4117647058823529,0.2857142857142857,0.3333333333333333,7.0,2.0,4.0,0.72850225,-0.03089625000000007,-0.41009243168152426,-0.027217663012160605,-0.027841797490394334,1.0051744825121949,-0.3805689262018325,0.5065908582277417,-0.6107116770377341
Encode-Decode_Experiment-11-1,2356125,encoding,1.642844,0.4,0.24756,0.09279,25,10,False,0.290167,0.261904,18,12,37,30,0.8108,0.29884,0.0,2916.0,4.0,2.0,How many uniformed staff are moving the luggage?,1.0,3095.0,1.0,1.0,Where is the luggage being moved to?,2.0,1.0,,,,,0.45,0.42857142857142855,0.46153846153846156,9.0,3.0,6.0,0.9290526875,0.7137913124999999,0.2305776734005732,0.6288054830159899,0.5449037508834227,-1.0699536884298835,1.134036356098717,-1.7242679669953416,-0.39774284945581695
Encode-Decode_Experiment-11-1,2344622,encoding,-0.812151,0.16,0.23684,0.094613,25,4,False,0.21429,0.20509,8,22,36,30,0.8333,0.229643,1.0,3551.0,4.0,4.0,What is the cat resting its head on?,1.0,4489.0,2.0,2.0,Where is the cat located?,3.0,2.0,,,,,0.5,0.4,0.5555555555555556,7.0,2.0,5.0,0.402355875,-1.2145068749999999,-1.4333862220691642,-1.0699045628418398,0.35398856809215035,-0.8231757611244029,0.25512581972117093,0.5065908582277417,-0.9570535348252159
Encode-Decode_Experiment-11-1,2369373,encoding,0.36254,0.407407,0.366444,0.112989,27,11,False,0.300643,0.323848,21,11,33,32,0.9697,0.302079,1.0,4641.0,3.0,3.0,What tool is the chef using?,0.0,4159.0,1.0,3.0,What is the appearance of the oven?,4.0,1.0,,,,,0.0,0.0,0.0,0.0,0.0,0.0,0.9177070625,-0.5551670625,-0.6371958378389556,-0.4890674441906728,-0.21875698028166665,0.6728468737408158,1.255383625746847,-1.7242679669953416,-0.40979101292309483
Encode-Decode_Experiment-11-1,2360001,encoding,1.051911,0.214286,0.137321,0.073166,28,6,False,0.150861,0.28008,13,22,35,35,1.0,0.232084,1.0,3527.0,4.0,4.0,What are the workers doing to the clock?,0.0,4447.0,2.0,4.0,Where are the men standing?,5.0,1.0,,,,,0.6,0.75,0.5454545454545454,9.0,3.0,6.0,1.297036375,-0.24512537499999998,-0.16994907986842261,-0.21594011740840663,0.163073385300878,1.0051744825121949,-0.47959506291640536,-1.7242679669953416,-0.006973048736007721
Encode-Decode_Experiment-11-1,150472,encoding,-0.525739,0.217391,0.272826,0.105442,23,5,False,0.091957,0.093667,11,16,29,27,0.931,0.10335,1.0,4609.0,2.0,2.0,Where is the pizza slice located?,1.0,2436.0,4.0,4.0,How many women are in the scene?,6.0,2.0,,,,,0.4375,0.25,0.6,7.0,1.0,6.0,0.6874455,-1.2131845,-1.23925986856161,-1.0687396332103893,-0.9824177114467559,0.24838883877539117,-1.1619012457489233,0.5065908582277417,-0.6543107238452179
Encode-Decode_Experiment-11-1,2362704,encoding,0.174253,0.153846,0.141192,0.072618,26,4,False,0.206413,0.164435,7,23,30,30,1.0,0.17423,1.0,3273.0,4.0,4.0,What are the bears doing with the pumpkins?,1.0,2147.0,2.0,2.0,How many bears are in the scene?,7.0,2.0,,,,,0.5555555555555556,0.2,0.5714285714285714,5.0,1.0,4.0,0.2910766875,-0.1168236875,-0.764814334001396,-0.1029143588044812,-0.7915025286554837,1.0051744825121949,0.16388370030361454,0.5065908582277417,-1.0752232999554632
Encode-Decode_Experiment-11-1,2367132,encoding,3.730474,0.35,0.0866,0.070608,20,7,False,0.089679,0.110717,19,14,34,33,0.9706,0.098292,1.0,5518.0,4.0,4.0,In which hand(s) are the men holding the controllers?,1.0,2338.0,2.0,2.0,How many men are playing in the scene?,8.0,2.0,,,,,0.7058823529411765,0.6,0.75,12.0,3.0,9.0,3.4291268125,0.3013471875000002,1.645546317776423,0.2654680163138687,-0.027841797490394334,0.6827179908330351,-1.188288137717083,0.5065908582277417,2.2571396923443587
Encode-Decode_Experiment-11-1,2386442,encoding,3.655787,0.703704,0.312148,0.107106,27,19,False,0.113722,0.105171,33,4,37,37,1.0,0.112798,0.0,3200.0,4.0,3.0,What is the person on the right wearing?,1.0,4148.0,1.0,1.0,Who is brushing their teeth in the scene?,9.0,1.0,,,,,0.47058823529411764,0.16666666666666666,0.5384615384615384,8.0,1.0,7.0,2.8865960625000002,0.7691909374999999,1.5949244340410391,0.6776090861798063,0.5449037508834227,1.0051744825121949,-0.9097894355263619,-1.7242679669953416,1.6810146078272123
Encode-Decode_Experiment-11-1,2350974,encoding,2.970947,0.52381,0.222143,0.101539,21,11,False,0.217762,0.228406,24,6,33,30,0.9091,0.214192,1.0,6384.0,4.0,4.0,Between which two objects is the child standing?,1.0,2785.0,1.0,1.0,What is the child up against?,10.0,2.0,,,,,0.08333333333333333,0.25,0.0,1.0,1.0,0.0,2.4937864375,0.47716056249999994,1.1307487293355323,0.42034859870754443,-0.21875698028166665,0.008191656198057286,0.29534324242242216,0.5065908582277417,1.2638816095551813
Encode-Decode_Experiment-11-1,2347400,encoding,1.436542,0.318182,0.179818,0.096317,22,7,False,0.235781,0.188421,14,14,38,28,0.7368,0.237335,1.0,3737.0,3.0,3.0,What are the men doing with the wine?,1.0,2667.0,1.0,1.0,What are the men sitting on in the scene?,11.0,2.0,,,,,0.4,0.125,0.5833333333333334,8.0,1.0,7.0,0.8918465,0.5446955,0.09074884296988076,0.4798426528539967,0.735818933674695,-1.881578871567905,0.5040637895577462,0.5065908582277417,-0.4372529010390651
Encode-Decode_Experiment-11-1,2356991,encoding,0.951975,0.241379,0.166828,0.078313,29,7,False,0.12271,0.17492,14,20,37,34,0.9189,0.14964,1.0,6140.0,1.0,1.0,How is the player on the left (from your perspective) reaching the base?,1.0,6431.0,2.0,2.0,What is the current action of the gloved player on the base?,12.0,2.0,,,,,0.4,0.2857142857142857,0.4,6.0,2.0,4.0,0.934694125,0.017280874999999973,-0.2376844096176334,0.01522336957738461,0.5449037508834227,0.11567715342444433,-0.805678204178768,0.5065908582277417,-0.3917520855102052
Encode-Decode_Experiment-11-1,2371471,encoding,1.885618,0.44,0.25408,0.098599,25,11,False,0.261174,0.606556,21,10,31,31,1.0,0.372587,0.0,4957.0,1.0,3.0,What is nearest to the motorcyclists?,1.0,6247.0,2.0,2.0,What stunt is one motorcyclist performing?,14.0,1.0,,,,,0.35,0.2,0.3333333333333333,7.0,1.0,5.0,1.7589963333333334,0.12662166666666663,0.39512675425767074,0.11154576537189641,-0.6005873458642114,1.0051744825121949,0.7982000264969379,-1.7242679669953416,0.4835921773609998
Encode-Decode_Experiment-11-1,2411268,encoding,0.740941,0.294118,0.217059,0.104001,17,5,False,0.215979,0.289461,15,12,34,27,0.7941,0.236921,1.0,3943.0,2.0,2.0,What is the child holding while picking fruit?,1.0,5672.0,4.0,4.0,Where is the fruit branch relative to the child?,15.0,2.0,,,,,0.0,0.0,0.0,0.0,0.0,0.0,1.7027574375,-0.9618164375000001,-0.3807205285166783,-0.8473000987314571,-0.027841797490394334,-1.25311775002995,0.27469011319536824,0.5065908582277417,0.42387088301016324
Encode-Decode_Experiment-11-1,2408717,encoding,-0.470886,0.16,0.19976,0.084437,25,4,False,0.350207,0.289281,8,19,34,27,0.7941,0.298228,1.0,3767.0,3.0,3.0,What are the surfers doing with the surfboards?,1.0,2533.0,2.0,2.0,How many surfers are in the scene?,16.0,2.0,,,,,0.6666666666666666,0.2,0.8888888888888888,10.0,1.0,8.0,0.3560793125,-0.8269653125,-1.2020812137952248,-0.728504695500944,-0.027841797490394334,-1.25311775002995,1.8295012348380957,0.5065908582277417,-1.0061956129129106
Encode-Decode_Experiment-11-1,2410309,encoding,-0.011677,0.136364,0.137364,0.085637,22,3,False,0.308537,0.292408,7,24,34,31,0.9118,0.315882,1.0,3041.0,4.0,4.0,How many laptops or electronic devices are visible?,1.0,3278.0,2.0,2.0,What is the baby touching?,17.0,2.0,,,,,0.6,0.42857142857142855,0.75,9.0,3.0,6.0,0.29547375,-0.30715075,-0.8908352860133912,-0.2705805917362907,-0.027841797490394334,0.03780500747471524,1.3468226622686434,0.5065908582277417,-1.0705539646146744
Encode-Decode_Experiment-11-1,2349475,encoding,-0.11116,0.173913,0.184609,0.096219,23,4,False,0.062321,0.052886,7,20,35,27,0.7714,0.078727,1.0,4349.0,3.0,3.0,Which part of the blender is the woman holding?,1.0,3378.0,1.0,1.0,What is the man doing to power the blender?,19.0,2.0,,,,,0.6,0.5,0.7,12.0,5.0,7.0,1.223761,-1.334921,-0.9582635782148075,-1.175981872423235,0.163073385300878,-1.502089258911479,-1.5051856752346033,0.5065908582277417,-0.0847857471220449
Encode-Decode_Experiment-11-1,2385851,encoding,-1.019643,0.086957,0.172261,0.083661,23,2,False,0.158952,0.177844,5,21,32,26,0.8125,0.207879,1.0,3774.0,3.0,3.0,Where are the men?,1.0,2739.0,2.0,2.0,What are the men doing with the suitcases?,20.0,2.0,,,,,0.5,0.4,0.5555555555555556,7.0,2.0,5.0,-0.23973612500000002,-0.779906875,-1.5740216191265135,-0.6870491566004683,-0.40967216307293897,-1.051308245033469,-0.38587410465723937,0.5065908582277417,-1.6389048543454157
Encode-Decode_Experiment-11-1,2387122,encoding,1.141207,0.47619,0.339095,0.120132,21,10,False,0.139046,0.109506,20,5,28,25,0.8929,0.136233,1.0,5174.0,3.0,3.0,Where is the polar bear located in the scene?,1.0,4770.0,1.0,1.0,What is the polar bear doing next to the enclosure edge?,21.0,2.0,,,,,0.6470588235294118,0.6,0.6666666666666666,11.0,3.0,8.0,0.8259124375,0.3152945625000001,-0.10942540466343614,0.27775478097476536,-1.1733328942380283,-0.16948845146188798,-0.6164524503632035,0.5065908582277417,-0.5072697016174126
Encode-Decode_Experiment-11-1,2345035,encoding,0.405641,0.16129,0.131161,0.074275,31,5,False,0.213296,0.22694,7,27,37,34,0.9189,0.213018,1.0,3135.0,2.0,2.0,Who runs toward the football in the scene?,1.0,4557.0,3.0,3.0,What are the people doing with the football?,22.0,2.0,,,,,0.42857142857142855,0.2,0.4,9.0,1.0,6.0,0.058984562500000004,0.34665643749999997,-0.607982536851116,0.3053826304768732,0.5449037508834227,0.11567715342444433,0.2436119608026676,0.5065908582277417,-1.3216869246097138
Encode-Decode_Experiment-11-1,2397102,encoding,0.749626,0.3,0.22015,0.10652,20,6,False,0.173613,0.169396,16,12,30,28,0.9333,0.165927,1.0,3272.0,1.0,1.0,What are the couple doing with the cake?,1.0,4218.0,3.0,3.0,What is the man holding besides the cake knife?,23.0,2.0,,,,,0.47619047619047616,0.4,0.3684210526315789,10.0,2.0,7.0,2.3538833125,-1.6042573124999997,-0.374833947716247,-1.4132503108441745,-0.7915025286554837,0.273615026899951,-0.2160504772888513,0.5065908582277417,1.1153154688989366
Encode-Decode_Experiment-11-1,2383555,encoding,0.038668,0.222222,0.218778,0.089077,27,6,False,0.214496,0.127001,13,18,34,31,0.9118,0.177751,1.0,3165.0,4.0,4.0,What is the woman at the back doing in the boat?,1.0,2862.0,2.0,2.0,Who is holding the child in the boat?,24.0,2.0,,,,,0.0,0.0,0.0,0.0,0.0,0.0,0.117122375,-0.07845437499999999,-0.8567120954091645,-0.06911339533372733,-0.027841797490394334,0.03780500747471524,0.25751199169019656,0.5065908582277417,-1.2599491297654501
Encode-Decode_Experiment-11-1,2394020,encoding,1.411591,0.75,0.541625,0.147617,16,12,False,0.284873,,20,0,25,20,0.8,0.280133,1.0,4892.0,2.0,2.0,What are the riders wearing on their heads?,1.0,2807.0,1.0,1.0,Where is the scene taking place?,27.0,2.0,,,,,0.5,0.3333333333333333,0.4444444444444444,6.0,1.0,4.0,1.9072669375,-0.49567593749999994,0.07383737750625849,-0.4366594855398876,-1.7460784426118452,-1.1884070935365127,1.0727140531665669,0.5065908582277417,0.641043924302402
Encode-Decode_Experiment-11-1,2374670,encoding,1.722857,0.44,0.25392,0.108007,25,11,False,0.236601,0.256587,19,14,35,33,0.9429,0.242823,1.0,4330.0,1.0,1.0,What vehicle sprays water in the scene?,0.0,6666.0,4.0,3.0,Where is the man standing relative to the vehicle?,29.0,1.0,,,,,0.3684210526315789,0.42857142857142855,0.36363636363636365,7.0,3.0,4.0,1.2259038125,0.49695318750000017,0.2848094511305565,0.4377846628698965,0.163073385300878,0.37890694255028834,0.5135621439975581,-1.7242679669953416,-0.08251024839194197
Encode-Decode_Experiment-11-1,2385550,encoding,1.638093,0.285714,0.159679,0.076941,28,8,False,0.232533,0.234815,16,16,34,32,0.9412,0.232809,1.0,3325.0,4.0,4.0,Where are the tangerines in the scene?,1.0,5641.0,3.0,3.0,Which side of the frame is the boy on? (from your perspective),30.0,2.0,,,,,0.4,0.0,0.5,6.0,0.0,6.0,1.8450925,-0.2069995,0.22735750697767756,-0.18235360714279977,-0.027841797490394334,0.3602614991538752,0.4664410392888338,0.5065908582277417,0.575019550459088
Encode-Decode_Experiment-11-1,2412687,encoding,0.152419,0.357143,0.334429,0.149025,14,5,False,0.098331,0.218764,12,12,29,24,0.8276,0.141215,1.0,3151.0,4.0,4.0,What is the dog biting onto in the scene?,1.0,5574.0,3.0,3.0,What is the human's body position?,34.0,2.0,,,,,0.4666666666666667,0.5,0.5555555555555556,7.0,2.0,5.0,1.4683525,-1.3159334999999999,-0.7796131371328427,-1.1592550730076616,-0.9824177114467559,-0.8856928360417915,-1.0880689150179972,0.5065908582277417,0.17495123296558238
Encode-Decode_Experiment-11-1,2409918,encoding,0.354383,0.36,0.32392,0.101811,25,9,False,0.147662,0.187722,21,12,35,33,0.9429,0.172968,1.0,3977.0,4.0,4.0,Where are the elephants in the scene?,1.0,4189.0,2.0,2.0,What is the elephant on the right (from your perspective) doing with its trunk?,35.0,2.0,,,,,0.6875,0.6666666666666666,0.7,11.0,4.0,7.0,2.0625840625,-1.7082010625000001,-0.6427245470605005,-1.50481825063364,0.163073385300878,0.37890694255028834,-0.5166502285907438,0.5065908582277417,0.805978523433576
Encode-Decode_Experiment-11-1,2347025,encoding,0.686526,0.75,0.6718,0.113907,20,15,False,0.137319,0.055183,30,1,32,31,0.9688,0.13769,1.0,4062.0,1.0,1.0,Where is the baby in relation to the mother?,0.0,4582.0,3.0,2.0,Who is holding the umbrella in the scene?,43.0,1.0,,,,,0.6,0.5,0.5833333333333334,9.0,2.0,7.0,0.81722825,-0.13070225000000002,-0.4176023125414872,-0.11514050395860861,-0.40967216307293897,0.6629757566485964,-0.6364569114821726,-1.7242679669953416,-0.5164916273007039
Encode-Decode_Experiment-11-1,2348899,encoding,3.835123,0.52,0.19808,0.08394,25,13,False,0.194244,0.172049,21,11,32,32,1.0,0.186614,1.0,3377.0,4.0,4.0,What is the woman doing?,1.0,9406.0,1.0,1.0,Where is the woman located relative to the man? (from your perspective),46.0,2.0,,,,,0.6086956521739131,0.5,0.6470588235294118,14.0,3.0,11.0,3.2167180625,0.6184049374999998,1.7164760580394423,0.5447760551500975,-0.40967216307293897,1.0051744825121949,0.02292580374499508,0.5065908582277417,2.031578267400369
Encode-Decode_Experiment-11-1,2379478,encoding,-0.019075,0.285714,0.288429,0.142295,14,4,False,0.4593,0.376932,10,7,18,17,0.9444,0.444714,1.0,2193.0,2.0,2.0,How many babies are visible in the scene?,1.0,5005.0,4.0,4.0,What is the position of the babies?,47.0,2.0,,,,,0.6923076923076923,0.8,0.5,9.0,4.0,5.0,2.2224776875,-2.2415526875,-0.895849554840287,-1.9746676594207329,-3.0824847221507516,0.3953588043706543,3.0931646261824506,0.5065908582277417,0.9757730064502123
Encode-Decode_Experiment-12-1,2348899,encoding,1.566717,0.75,0.496167,0.162016,12,9,False,0.211917,,26,0,26,26,1.0,0.211917,1.0,4705.0,4.0,4.0,What is the woman doing?,1.0,6461.0,1.0,1.0,Where is the woman located relative to the man? (from your perspective),1.0,2.0,,,,,0.43478260869565216,0.16666666666666666,0.5294117647058824,10.0,1.0,9.0,3.2167180625,-1.6500010625000001,0.17897977626822678,-1.4535476923196782,-1.555163259820573,1.0051744825121949,0.2276385086410817,0.5065908582277417,2.031578267400369
Encode-Decode_Experiment-12-1,2350974,encoding,1.903296,0.631579,0.401789,0.120732,19,12,False,0.342232,0.175951,22,5,30,27,0.9,0.297481,1.0,6260.0,4.0,4.0,Between which two objects is the child standing?,1.0,4350.0,1.0,1.0,What is the child up against?,2.0,2.0,,,,,0.08333333333333333,0.25,0.0,1.0,1.0,0.0,2.4937864375,-0.5904904374999997,0.4071086742795503,-0.5201851273140994,-0.7915025286554837,-0.09161630551215891,1.737123946231391,0.5065908582277417,1.2638816095551813
Encode-Decode_Experiment-12-1,2362704,encoding,0.488559,0.166667,0.130375,0.074283,24,4,False,0.241483,0.322712,9,20,30,29,0.9667,0.298547,1.0,4769.0,4.0,4.0,What are the bears doing with the pumpkins?,1.0,1435.0,2.0,2.0,How many bears are in the scene?,3.0,2.0,,,,,0.5555555555555556,0.2,0.5714285714285714,5.0,1.0,4.0,0.2910766875,0.19748231250000003,-0.5517817876501768,0.17396956046404277,-0.7915025286554837,0.6399431501000851,0.570112102991656,0.5065908582277417,-1.0752232999554632
Encode-Decode_Experiment-12-1,2412687,encoding,1.598289,0.6,0.370667,0.143487,15,9,False,0.115768,0.140906,17,7,31,24,0.7742,0.118383,1.0,4546.0,4.0,4.0,What is the dog biting onto in the scene?,1.0,3800.0,3.0,3.0,What is the human's body position?,4.0,2.0,,,,,0.06666666666666667,0.0,0.1111111111111111,1.0,0.0,1.0,1.4683525,0.12993650000000012,0.20037886999663387,0.11446592612306031,-0.6005873458642114,-1.4713791168467967,-0.8860898828631246,0.5065908582277417,0.17495123296558238
Encode-Decode_Experiment-12-1,2379478,encoding,2.782982,0.722222,0.341778,0.136704,18,13,False,0.388866,0.249042,29,4,33,33,1.0,0.371917,1.0,2555.0,2.0,2.0,How many babies are visible in the scene?,1.0,4318.0,4.0,4.0,What is the position of the babies?,5.0,2.0,,,,,0.5384615384615384,0.4,0.5,7.0,2.0,5.0,2.2224776875,0.5605043125,1.003348480613246,0.49376922747866575,-0.21875698028166665,1.0051744825121949,2.2773023132389225,0.5065908582277417,0.9757730064502123
Encode-Decode_Experiment-12-1,2374670,encoding,0.249412,0.318182,0.289955,0.113175,22,7,False,0.15559,0.127896,18,14,33,32,0.9697,0.139603,0.0,5477.0,4.0,1.0,What vehicle sprays water in the scene?,1.0,3700.0,3.0,3.0,Where is the man standing relative to the vehicle?,6.0,1.0,,,,,0.3684210526315789,0.2857142857142857,0.45454545454545453,7.0,2.0,5.0,1.2259038125,-0.9764918125,-0.7138725347636746,-0.8602281858399923,-0.21875698028166665,0.6728468737408158,-0.42481735786046715,-1.7242679669953416,-0.08251024839194197
Encode-Decode_Experiment-12-1,2347400,encoding,1.382448,0.263158,0.141895,0.087716,19,5,False,0.173668,0.287058,14,13,30,27,0.9,0.223652,1.0,7922.0,3.0,3.0,What are the men doing with the wine?,1.0,2618.0,1.0,1.0,What are the men sitting on in the scene?,7.0,2.0,,,,,0.5,0.375,0.5833333333333334,10.0,3.0,7.0,0.8918465,0.4906014999999999,0.05408462859814471,0.4321892236197105,-0.7915025286554837,-0.09161630551215891,-0.21541339253983954,0.5065908582277417,-0.4372529010390651
Encode-Decode_Experiment-12-1,2408717,encoding,0.357366,0.217391,0.185,0.090639,23,5,False,0.307717,0.204369,11,19,32,30,0.9375,0.248498,1.0,5172.0,2.0,2.0,How many surfers are in the scene?,1.0,4703.0,3.0,3.0,What are the surfers doing with the surfboards?,8.0,2.0,,,,,0.4666666666666667,0.4,0.4444444444444444,7.0,2.0,4.0,0.3560793125,0.0012866874999999944,-0.640702708197209,0.0011334911769861802,-0.40967216307293897,0.31968023999697365,1.337324307828832,0.5065908582277417,-1.0061956129129106
Encode-Decode_Experiment-12-1,2386442,encoding,3.152635,0.777778,0.356444,0.133645,18,14,False,0.132073,0.059577,33,2,35,35,1.0,0.127931,1.0,3588.0,1.0,1.0,Who is brushing their teeth in the scene?,1.0,3734.0,3.0,3.0,What is the person on the right wearing?,9.0,2.0,,,,,0.11764705882352941,0.0,0.15384615384615385,2.0,0.0,2.0,2.8865960625000002,0.26603893749999985,1.253894508548975,0.23436365736904113,0.163073385300878,1.0051744825121949,-0.6972232131788213,0.5065908582277417,1.6810146078272123
Encode-Decode_Experiment-12-1,2410309,encoding,0.27344,0.3,0.26725,0.11977,20,6,False,0.422645,0.22628,14,14,29,28,0.9655,0.320055,1.0,3377.0,4.0,4.0,How many laptops or electronic devices are visible?,1.0,4521.0,2.0,2.0,What is the baby touching?,12.0,2.0,,,,,0.5333333333333333,0.42857142857142855,0.625,8.0,3.0,5.0,0.29547375,-0.022033749999999963,-0.697586666776022,-0.019410355055846304,-0.9824177114467559,0.626781660643793,2.6685765993637975,0.5065908582277417,-1.0705539646146744
Encode-Decode_Experiment-12-1,2371471,encoding,3.127066,0.64,0.30496,0.107142,25,16,False,0.410398,0.467525,25,6,31,31,1.0,0.421455,1.0,14130.0,2.0,2.0,What stunt is one motorcyclist performing?,0.0,7842.0,1.0,3.0,What is nearest to the motorcyclists?,13.0,1.0,,,,,0.35,0.2,0.3333333333333333,7.0,1.0,5.0,1.7589963333333334,1.3680696666666667,1.2365641706691564,1.2051837735806818,-0.6005873458642114,1.0051744825121949,2.5267152007974887,-1.7242679669953416,0.4835921773609998
Encode-Decode_Experiment-12-1,2356991,encoding,-0.476864,0.166667,0.2155,0.102405,24,4,False,0.14828,0.172787,7,23,30,30,1.0,0.167069,1.0,6140.0,1.0,1.0,How is the player on the left (from your perspective) reaching the base?,0.0,10852.0,1.0,2.0,What is the current action of the gloved player on the base?,14.0,1.0,,,,,0.4,0.2857142857142857,0.4,6.0,2.0,4.0,0.934694125,-1.411558125,-1.2061330249667825,-1.243494384215793,-0.7915025286554837,1.0051744825121949,-0.5094917126836661,-1.7242679669953416,-0.3917520855102052
Encode-Decode_Experiment-12-1,2349475,encoding,0.903512,0.285714,0.19619,0.099084,21,6,False,0.06314,0.06219,12,15,30,27,0.9,0.073385,1.0,4695.0,1.0,1.0,What is the man doing to power the blender?,1.0,4553.0,3.0,3.0,Which part of the blender is the woman holding?,15.0,2.0,,,,,0.55,0.3,0.8,11.0,3.0,8.0,1.223761,-0.3202490000000001,-0.2705320049349966,-0.28211933040357345,-0.7915025286554837,-0.09161630551215891,-1.4956989041538646,0.5065908582277417,-0.0847857471220449
Encode-Decode_Experiment-12-1,2370664,encoding,1.792974,0.36,0.20424,0.086872,25,9,False,0.158935,0.098141,17,15,32,32,1.0,0.130438,1.0,3163.0,1.0,1.0,Where are the people located in the scene?,1.0,2855.0,4.0,4.0,How many donuts are in the scene?,16.0,2.0,,,,,0.4117647058823529,0.2857142857142857,0.3333333333333333,7.0,2.0,4.0,0.72850225,1.06447175,0.33233384790474607,0.9377330057034369,-0.40967216307293897,1.0051744825121949,-0.38607102176147956,0.5065908582277417,-0.6107116770377341
Encode-Decode_Experiment-12-1,2394020,encoding,3.928929,0.782609,0.335478,0.113805,23,18,False,0.297217,0.201905,26,2,31,28,0.9032,0.305749,1.0,2564.0,2.0,2.0,What are the riders wearing on their heads?,1.0,6988.0,1.0,1.0,Where is the scene taking place?,17.0,2.0,,,,,0.5833333333333334,0.3333333333333333,0.6666666666666666,7.0,1.0,6.0,1.9072669375,2.0216620625,1.78005655298075,1.7809577777754404,-0.6005873458642114,-0.05651900029537978,1.215699037562951,0.5065908582277417,0.641043924302402
Encode-Decode_Experiment-12-1,2345035,encoding,-0.513364,0.315789,0.383895,0.132665,19,6,False,0.180412,0.292083,14,13,34,27,0.7941,0.226322,1.0,3588.0,2.0,2.0,Who runs toward the football in the scene?,0.0,8018.0,2.0,3.0,What are the people doing with the football?,18.0,1.0,,,,,0.38095238095238093,0.2,0.4666666666666667,8.0,1.0,7.0,0.058984562500000004,-0.5723485625,-1.2308722534314618,-0.5042032706111425,-0.027841797490394334,-1.25311775002995,-0.13729521895192529,-1.7242679669953416,-1.3216869246097138
Encode-Decode_Experiment-12-1,2369373,encoding,2.49022,0.647059,0.327706,0.128243,17,11,False,0.229375,0.075314,21,2,24,23,0.9583,0.21144,1.0,2801.0,3.0,3.0,What tool is the chef using?,1.0,4471.0,3.0,3.0,What is the appearance of the oven?,20.0,2.0,,,,,0.4,0.3333333333333333,0.4166666666666667,6.0,1.0,5.0,0.9177070625,1.5725129375,0.8049181791399186,1.3852855027758282,-1.9369936254031177,0.5478127239060397,0.4298607913364861,0.5065908582277417,-0.40979101292309483
Encode-Decode_Experiment-12-1,2360001,encoding,1.04886,0.333333,0.215133,0.112694,15,5,False,0.338907,0.117954,9,14,23,23,1.0,0.204414,1.0,4385.0,4.0,4.0,What are the workers doing to the clock?,1.0,5966.0,4.0,4.0,Where are the men standing?,21.0,2.0,,,,,0.5333333333333333,0.5,0.5454545454545454,8.0,2.0,6.0,1.297036375,-0.24817637500000012,-0.1720170082532374,-0.2186278575014634,-2.1279088081943898,1.0051744825121949,1.6986092773138624,0.5065908582277417,-0.006973048736007721
Encode-Decode_Experiment-12-1,2344622,encoding,1.079607,0.277778,0.175444,0.094788,18,5,False,0.195878,0.182635,17,15,32,32,1.0,0.18967,1.0,3553.0,4.0,4.0,What is the cat resting its head on?,1.0,2338.0,2.0,2.0,Where is the cat located?,22.0,2.0,,,,,0.42857142857142855,0.4,0.4444444444444444,6.0,2.0,4.0,0.402355875,0.677251125,-0.15117708886684023,0.5966158642183637,-0.40967216307293897,1.0051744825121949,0.041853012470180674,0.5065908582277417,-0.9570535348252159
Encode-Decode_Experiment-12-1,2385550,encoding,0.806193,0.230769,0.163308,0.083679,26,6,False,0.187256,0.225803,11,21,32,32,1.0,0.212552,1.0,4594.0,3.0,3.0,Which side of the frame is the boy on? (from your perspective),1.0,2877.0,4.0,4.0,Where are the tangerines in the scene?,23.0,2.0,,,,,0.4666666666666667,0.3333333333333333,0.5,7.0,1.0,6.0,1.8450925,-1.0388994999999999,-0.33649356589264384,-0.9152054535583471,-0.40967216307293897,1.0051744825121949,-0.05801870945671672,0.5065908582277417,0.575019550459088
Encode-Decode_Experiment-12-1,2409918,encoding,2.437274,0.8125,0.475812,0.138141,16,13,False,0.105191,,29,0,31,29,0.9355,0.116702,0.0,7279.0,3.0,2.0,What is the elephant on the right (from your perspective) doing with its trunk?,1.0,3754.0,4.0,4.0,Where are the elephants in the scene?,25.0,1.0,,,,,0.5625,0.3333333333333333,0.7,9.0,2.0,7.0,2.0625840625,0.3746899374999999,0.7690320643374279,0.33007838986681215,-0.6005873458642114,0.29774442423648656,-1.0086070717776217,-1.7242679669953416,0.805978523433576
Encode-Decode_Experiment-12-1,2347025,encoding,0.835642,0.722222,0.614611,0.128777,18,13,False,0.083014,0.033475,26,1,28,27,0.9643,0.080254,1.0,3188.0,1.0,1.0,Where is the baby in relation to the mother?,1.0,4422.0,2.0,2.0,Who is holding the umbrella in the scene?,26.0,2.0,,,,,0.4666666666666667,0.5,0.4166666666666667,7.0,2.0,5.0,0.81722825,0.018413750000000007,-0.3165334141376756,0.016221361566215044,-1.1733328942380283,0.613620171187501,-1.265491225938235,0.5065908582277417,-0.5164916273007039
Encode-Decode_Experiment-12-1,2383555,encoding,0.882377,0.375,0.277958,0.109978,24,9,False,0.206303,0.170577,16,15,32,31,0.9688,0.185409,0.0,2500.0,3.0,2.0,Who is holding the child in the boat?,1.0,5224.0,4.0,4.0,What is the woman at the back doing in the boat?,27.0,1.0,,,,,0.3333333333333333,0.3333333333333333,0.36363636363636365,6.0,2.0,4.0,0.117122375,0.765254625,-0.28485703489666775,0.6741414411699571,-0.40967216307293897,0.6629757566485964,0.1626095308055907,-1.7242679669953416,-1.2599491297654501
Encode-Decode_Experiment-12-1,2356125,encoding,0.858316,0.277778,0.192889,0.098902,18,5,False,0.270544,0.210304,12,18,33,30,0.9091,0.236254,1.0,3678.0,2.0,2.0,How many uniformed staff are moving the luggage?,1.0,2689.0,1.0,1.0,Where is the luggage being moved to?,31.0,2.0,,,,,0.25,0.0,0.3076923076923077,5.0,0.0,4.0,0.9290526875,-0.07073668750000006,-0.3011652698580006,-0.06231459555679123,-0.21875698028166665,0.008191656198057286,0.9067361010103951,0.5065908582277417,-0.39774284945581695
Encode-Decode_Experiment-12-1,2387122,encoding,0.35523,0.470588,0.420118,0.142078,17,8,False,0.131836,0.071836,19,6,26,25,0.9615,0.122484,1.0,3195.0,3.0,3.0,Where is the polar bear located in the scene?,1.0,6460.0,1.0,1.0,What is the polar bear doing next to the enclosure edge?,32.0,2.0,,,,,0.47058823529411764,0.2,0.5833333333333334,8.0,1.0,7.0,0.8259124375,-0.4706824375,-0.6421504614027037,-0.4146417759312965,-1.555163259820573,0.5829100291228189,-0.6999684692791082,0.5065908582277417,-0.5072697016174126
Encode-Decode_Experiment-12-1,2411268,encoding,3.118175,0.777778,0.384611,0.126089,18,14,False,0.151452,0.139584,24,2,28,26,0.9286,0.14773,1.0,7147.0,2.0,2.0,What is the child holding while picking fruit?,1.0,5309.0,4.0,4.0,Where is the fruit branch relative to the child?,35.0,2.0,,,,,0.6875,0.3333333333333333,0.9,11.0,2.0,9.0,1.7027574375,1.4154175624999998,1.2305379657299929,1.246894307160859,-1.1733328942380283,0.22206585986280591,-0.47274929770429713,0.5065908582277417,0.42387088301016324
Encode-Decode_Experiment-12-1,2367132,encoding,3.556522,0.545455,0.178591,0.103152,22,12,False,0.088573,0.076846,26,7,34,33,0.9706,0.085984,1.0,4645.0,4.0,4.0,In which hand(s) are the men holding the controllers?,1.0,1938.0,2.0,2.0,How many men are playing in the scene?,42.0,2.0,,,,,0.058823529411764705,0.2,0.0,1.0,1.0,0.0,3.4291268125,0.12739518750000034,1.52764389942333,0.1122271888253758,-0.027841797490394334,0.6827179908330351,-1.2010993328517559,0.5065908582277417,2.2571396923443587
Encode-Decode_Experiment-12-1,2397102,encoding,1.238677,0.428571,0.28519,0.115753,21,9,False,0.085259,0.18614,19,10,31,29,0.9355,0.118279,1.0,2848.0,3.0,3.0,What is the man holding besides the cake knife?,1.0,2213.0,1.0,1.0,What are the couple doing with the cake?,46.0,2.0,,,,,0.38095238095238093,0.4,0.3157894736842105,8.0,2.0,6.0,2.3538833125,-1.1152063124999998,-0.04336149785652401,-0.9824269807066942,-0.6005873458642114,0.29774442423648656,-1.2394865848194823,0.5065908582277417,1.1153154688989366
Encode-Decode_Experiment-12-1,2385851,encoding,-1.348958,0.0,0.113294,0.083986,17,0,False,,0.143996,0,21,22,21,0.9545,0.147182,1.0,2616.0,2.0,2.0,What are the men doing with the suitcases?,0.0,5927.0,4.0,3.0,Where are the men?,48.0,1.0,,,,,0.9285714285714286,0.8,1.0,13.0,4.0,9.0,-0.23973612500000002,-1.109221875,-1.7972270717798253,-0.9771550657269692,-2.318823990985662,0.506134673961114,,-1.7242679669953416,-1.6389048543454157
Encode-Decode_Experiment-12-1,150472,encoding,0.958904,0.458333,0.354917,0.107849,24,11,False,0.09993,0.108113,18,9,29,27,0.931,0.11259,1.0,1991.0,4.0,4.0,How many women are in the scene?,1.0,4824.0,2.0,2.0,Where is the pizza slice located?,49.0,2.0,,,,,0.625,0.25,0.8,10.0,1.0,8.0,0.6874455,0.27145849999999994,-0.23298802293183168,0.23913795281908265,-0.9824177114467559,0.24838883877539117,-1.0695471238603644,0.5065908582277417,-0.6543107238452179
Encode-Decode_Experiment-13-1,2383555,encoding,-0.941434,0.043478,0.111478,0.07223,23,1,False,0.250284,0.2218,2,24,33,26,0.7879,0.198782,0.0,6222.0,3.0,2.0,Who is holding the child in the boat?,1.0,3642.0,4.0,4.0,What is the woman at the back doing in the boat?,1.0,1.0,,,,,0.3888888888888889,0.3333333333333333,0.45454545454545453,7.0,2.0,5.0,0.117122375,-1.058556375,-1.5210125692910585,-0.9325219304648379,-0.21875698028166665,-1.3211187788874597,0.6720572461926101,-1.7242679669953416,-1.2599491297654501
Encode-Decode_Experiment-13-1,2362704,encoding,-0.569881,0.074074,0.113481,0.06915,27,2,False,0.357824,0.25117,3,30,33,33,1.0,0.260866,1.0,4661.0,4.0,4.0,What are the bears doing with the pumpkins?,1.0,1935.0,2.0,2.0,How many bears are in the scene?,2.0,2.0,,,,,0.4444444444444444,0.2,0.42857142857142855,4.0,1.0,3.0,0.2910766875,-0.8609576875,-1.2691787459010038,-0.758449850907603,-0.21875698028166665,1.0051744825121949,1.9177316808966873,0.5065908582277417,-1.0752232999554632
Encode-Decode_Experiment-13-1,2408717,encoding,0.977161,0.291667,0.207042,0.086603,24,7,False,0.27242,0.165683,15,13,38,28,0.7368,0.225013,1.0,5354.0,3.0,3.0,What are the surfers doing with the surfboards?,1.0,3379.0,2.0,2.0,How many surfers are in the scene?,3.0,2.0,,,,,0.4,0.2,0.4444444444444444,6.0,1.0,4.0,0.3560793125,0.6210816874999999,-0.22061366418992348,0.5471341044106972,0.735818933674695,-1.881578871567905,0.9284664826312324,0.5065908582277417,-1.0061956129129106
Encode-Decode_Experiment-13-1,2356991,encoding,1.402613,0.307692,0.182385,0.089339,26,8,False,0.119732,0.180797,14,16,33,30,0.9091,0.156088,1.0,11044.0,2.0,2.0,What is the current action of the gloved player on the base?,1.0,8942.0,1.0,1.0,How is the player on the left (from your perspective) reaching the base?,4.0,2.0,,,,,0.6666666666666666,0.8571428571428571,0.4,10.0,6.0,4.0,0.934694125,0.46791887500000007,0.06775220509102865,0.41220725029022215,-0.21875698028166665,0.008191656198057286,-0.8401734474979864,0.5065908582277417,-0.3917520855102052
Encode-Decode_Experiment-13-1,2349475,encoding,1.996356,0.458333,0.248625,0.105046,24,11,False,0.100344,0.047474,20,8,35,28,0.8,0.095884,1.0,7850.0,3.0,3.0,Which part of the blender is the woman holding?,1.0,3279.0,1.0,1.0,What is the man doing to power the blender?,5.0,2.0,,,,,0.55,0.3,0.7,11.0,3.0,7.0,1.223761,0.7725949999999999,0.4701835400582641,0.6806078522435628,0.163073385300878,-1.1884070935365127,-1.064751613204167,0.5065908582277417,-0.0847857471220449
Encode-Decode_Experiment-13-1,2412687,encoding,1.426439,0.684211,0.489789,0.136298,19,13,False,0.102174,0.108124,17,7,30,24,0.8,0.108729,0.0,5320.0,2.0,3.0,What is the human's body position?,1.0,5698.0,4.0,4.0,What is the dog biting onto in the scene?,6.0,1.0,,,,,0.0,0.0,0.0,0.0,0.0,0.0,1.4683525,-0.04191349999999994,0.08390116008827378,-0.03692317089161918,-0.7915025286554837,-1.1884070935365127,-1.0435540661006848,-1.7242679669953416,0.17495123296558238
Encode-Decode_Experiment-13-1,2385851,encoding,-0.567677,0.090909,0.136545,0.080391,22,2,False,0.103798,0.287702,5,23,30,28,0.9333,0.256344,1.0,4739.0,2.0,2.0,What are the men doing with the suitcases?,0.0,5823.0,4.0,3.0,Where are the men?,7.0,1.0,,,,,0.5,0.6,0.4444444444444444,7.0,3.0,4.0,-0.23973612500000002,-0.32794087499999997,-1.2676849031739859,-0.2888953909831473,-0.7915025286554837,0.273615026899951,-1.0247426909662287,-1.7242679669953416,-1.6389048543454157
Encode-Decode_Experiment-13-1,2345035,encoding,0.447078,0.428571,0.371048,0.128666,21,9,False,0.15256,0.144497,16,10,35,26,0.7429,0.163761,0.0,6182.0,2.0,3.0,What are the people doing with the football?,1.0,5894.0,2.0,2.0,Who runs toward the football in the scene?,8.0,1.0,,,,,0.42857142857142855,0.6,0.3333333333333333,9.0,3.0,5.0,0.058984562500000004,0.38809343749999997,-0.5798970735664334,0.34188603468401474,0.163073385300878,-1.8146746334984194,-0.4599149358514785,-1.7242679669953416,-1.3216869246097138
Encode-Decode_Experiment-13-1,2347025,encoding,0.571459,0.727273,0.664545,0.109767,22,16,False,0.091097,0.035702,26,4,30,30,1.0,0.083711,1.0,3674.0,1.0,1.0,Where is the baby in relation to the mother?,1.0,3658.0,2.0,2.0,Who is holding the umbrella in the scene?,11.0,2.0,,,,,0.4666666666666667,0.75,0.3333333333333333,7.0,3.0,4.0,0.81722825,-0.24576924999999994,-0.4955932386166996,-0.21650733099490835,-0.7915025286554837,1.0051744825121949,-1.1718629345516527,0.5065908582277417,-0.5164916273007039
Encode-Decode_Experiment-13-1,2410309,encoding,0.80925,0.15,0.0894,0.074884,20,3,False,0.2882,0.303889,6,17,23,23,1.0,0.299796,1.0,4719.0,2.0,2.0,What is the baby touching?,1.0,3730.0,4.0,4.0,How many laptops or electronic devices are visible?,12.0,2.0,,,,,0.6666666666666666,0.5714285714285714,0.75,10.0,4.0,6.0,0.29547375,0.51377625,-0.3344215707853418,0.45260472828099046,-2.1279088081943898,1.0051744825121949,1.111251888802242,0.5065908582277417,-1.0705539646146744
Encode-Decode_Experiment-13-1,2347400,encoding,-0.285091,0.25,0.2829,0.115402,20,5,False,0.19563,0.194686,11,18,33,29,0.8788,0.201439,1.0,4850.0,3.0,3.0,What are the men doing with the wine?,1.0,2984.0,1.0,1.0,What are the men sitting on in the scene?,13.0,2.0,,,,,0.4,0.25,0.5,8.0,2.0,6.0,0.8918465,-1.1769375,-1.076151763039195,-1.0368082942549566,-0.21875698028166665,-0.32413595257332195,0.03898033942009132,0.5065908582277417,-0.4372529010390651
Encode-Decode_Experiment-13-1,2367132,encoding,3.972417,0.461538,0.134923,0.082221,26,12,False,0.095807,0.137473,26,8,36,34,0.9444,0.10363,1.0,3504.0,2.0,2.0,How many men are playing in the scene?,0.0,15044.0,2.0,4.0,In which hand(s) are the men holding the controllers?,15.0,1.0,,,,,0.7058823529411765,0.6,0.75,12.0,3.0,9.0,3.4291268125,0.5432901875000002,1.809532157569023,0.4786046604746053,0.35398856809215035,0.3953588043706543,-1.1173053133181003,-1.7242679669953416,2.2571396923443587
Encode-Decode_Experiment-13-1,2397102,encoding,2.18961,0.32,0.14304,0.080818,25,8,False,0.086902,0.131221,15,15,33,30,0.9091,0.109785,1.0,3084.0,1.0,1.0,What are the couple doing with the cake?,1.0,5802.0,3.0,3.0,What is the man holding besides the cake knife?,16.0,2.0,,,,,0.8571428571428571,0.8,0.7368421052631579,18.0,4.0,14.0,2.3538833125,-0.16427331249999977,0.6011686046531447,-0.14471450941510167,-0.21875698028166665,0.008191656198057286,-1.2204551258626402,0.5065908582277417,1.1153154688989366
Encode-Decode_Experiment-13-1,2379478,encoding,3.470931,0.5,0.214687,0.082201,32,16,False,0.359212,0.372775,23,12,35,35,1.0,0.363862,0.0,3873.0,3.0,4.0,What is the position of the babies?,1.0,3325.0,2.0,2.0,How many babies are visible in the scene?,17.0,1.0,,,,,0.7692307692307693,1.0,0.5,10.0,5.0,5.0,2.2224776875,1.2484533125000001,1.4696314253542786,1.0998092501853969,0.163073385300878,1.0051744825121949,1.9338093832899295,-1.7242679669953416,0.9757730064502123
Encode-Decode_Experiment-13-1,2394020,encoding,2.328615,0.764706,0.460882,0.130474,17,13,False,0.215258,0.250507,25,1,31,26,0.8387,0.216909,0.0,5040.0,1.0,2.0,What are the riders wearing on their heads?,0.0,10517.0,4.0,1.0,Where is the scene taking place?,19.0,0.0,,,,,0.5,0.3333333333333333,0.4444444444444444,6.0,1.0,4.0,1.9072669375,0.4213480625000001,0.6953843978786995,0.37118127850311167,-0.6005873458642114,-0.7639490585710882,0.2663385113037778,-3.955126792218425,0.641043924302402
Encode-Decode_Experiment-13-1,150472,encoding,-0.511376,0.2,0.25465,0.106869,20,4,False,0.068257,0.077041,10,20,31,30,0.9677,0.077114,1.0,3206.0,2.0,2.0,Where is the pizza slice located?,1.0,3176.0,4.0,4.0,How many women are in the scene?,22.0,2.0,,,,,0.625,0.5,0.7,10.0,2.0,7.0,0.6874455,-1.1988215000000002,-1.2295248127139884,-1.056086728930949,-0.6005873458642114,0.6509110579803287,-1.4364268557776256,0.5065908582277417,-0.6543107238452179
Encode-Decode_Experiment-13-1,2356125,encoding,2.12238,0.454545,0.247909,0.097361,22,10,False,0.293852,0.291583,19,8,33,27,0.8182,0.293749,1.0,6255.0,1.0,1.0,Where is the luggage being moved to?,1.0,5479.0,2.0,2.0,How many uniformed staff are moving the luggage?,24.0,2.0,,,,,0.45,0.5714285714285714,0.38461538461538464,9.0,4.0,5.0,0.9290526875,1.1933273125000001,0.5556009791824491,1.0512466935253373,-0.21875698028166665,-0.9887911701160804,1.1767210342825045,0.5065908582277417,-0.39774284945581695
Encode-Decode_Experiment-13-1,2360001,encoding,0.852272,0.178571,0.120893,0.067676,28,5,False,0.281527,0.329262,12,22,34,34,1.0,0.312414,0.0,6756.0,2.0,4.0,Where are the men standing?,1.0,4500.0,4.0,4.0,What are the workers doing to the clock?,25.0,1.0,,,,,0.6,0.75,0.5454545454545454,9.0,3.0,6.0,1.297036375,-0.444764375,-0.30526181497691895,-0.3918095846118608,-0.027841797490394334,1.0051744825121949,1.0339561337085066,-1.7242679669953416,-0.006973048736007721
Encode-Decode_Experiment-13-1,2371471,encoding,2.665161,0.521739,0.247565,0.102873,23,12,False,0.265591,0.546979,24,8,32,32,1.0,0.335938,0.0,7127.0,1.0,3.0,What is nearest to the motorcyclists?,1.0,6087.0,2.0,2.0,What stunt is one motorcyclist performing?,26.0,1.0,,,,,0.5,0.6,0.4,10.0,3.0,6.0,1.7589963333333334,0.9061646666666665,0.9234909289163423,0.7982743708657238,-0.40967216307293897,1.0051744825121949,0.8493637235221185,-1.7242679669953416,0.4835921773609998
Encode-Decode_Experiment-13-1,2348899,encoding,2.057856,0.47619,0.250286,0.109777,21,10,False,0.15063,0.129168,22,8,30,30,1.0,0.144907,1.0,6089.0,4.0,4.0,What is the woman doing?,1.0,6644.0,1.0,1.0,Where is the woman located relative to the man? (from your perspective),27.0,2.0,,,,,0.6086956521739131,0.3333333333333333,0.7058823529411765,14.0,2.0,12.0,3.2167180625,-1.1588620625,0.5118674455535458,-1.020884964832377,-0.7915025286554837,1.0051744825121949,-0.48227081886225487,0.5065908582277417,2.031578267400369
Encode-Decode_Experiment-13-1,2369373,encoding,0.563401,0.444444,0.366222,0.138839,18,8,False,0.227792,0.204199,19,7,28,26,0.9286,0.213981,1.0,4028.0,3.0,3.0,What tool is the chef using?,1.0,4322.0,3.0,3.0,What is the appearance of the oven?,28.0,2.0,,,,,0.6,0.6666666666666666,0.5833333333333334,9.0,2.0,7.0,0.9177070625,-0.35430606249999996,-0.5010548469172034,-0.312121471450111,-1.1733328942380283,0.22206585986280591,0.41152433392402044,0.5065908582277417,-0.40979101292309483
Encode-Decode_Experiment-13-1,2386442,encoding,2.44309,0.695652,0.395913,0.122689,23,16,False,0.127344,0.099366,32,3,35,35,1.0,0.124946,1.0,6171.0,1.0,1.0,Who is brushing their teeth in the scene?,1.0,7296.0,3.0,3.0,What is the person on the right wearing?,29.0,2.0,,,,,0.5294117647058824,0.6666666666666666,0.38461538461538464,9.0,4.0,5.0,2.8865960625000002,-0.4435060625,0.7729740740018274,-0.39070109003439624,0.163073385300878,1.0051744825121949,-0.7520009182347592,0.5065908582277417,1.6810146078272123
Encode-Decode_Experiment-13-1,2387122,encoding,0.600094,0.461538,0.360231,0.16882,13,6,False,0.156238,0.374332,9,7,19,16,0.8421,0.261716,1.0,7180.0,1.0,1.0,What is the polar bear doing next to the enclosure edge?,1.0,5457.0,3.0,3.0,Where is the polar bear located in the scene?,30.0,2.0,,,,,0.47058823529411764,0.4,0.5,8.0,2.0,6.0,0.8259124375,-0.22581843749999997,-0.4761848055458478,-0.1989319135431529,-2.8915695393594794,-0.7266581717782606,-0.41731134118120156,0.5065908582277417,-0.5072697016174126
Encode-Decode_Experiment-13-1,2370664,encoding,-1.017978,0.058824,0.166882,0.106151,17,1,False,0.104568,0.133365,2,24,26,26,1.0,0.13115,1.0,5084.0,4.0,4.0,How many donuts are in the scene?,1.0,3212.0,1.0,1.0,Where are the people located in the scene?,31.0,2.0,,,,,0.17647058823529413,0.14285714285714285,0.16666666666666666,3.0,1.0,2.0,0.72850225,-1.74648025,-1.5728931036362754,-1.5385398196186886,-1.555163259820573,1.0051744825121949,-1.015823504480064,0.5065908582277417,-0.6107116770377341
Encode-Decode_Experiment-13-1,2350974,encoding,4.241275,0.652174,0.237739,0.097715,23,15,False,0.22714,0.145314,23,4,31,27,0.871,0.217249,1.0,5577.0,4.0,4.0,Between which two objects is the child standing?,1.0,5629.0,1.0,1.0,What is the child up against?,32.0,2.0,,,,,0.0,0.0,0.0,0.0,0.0,0.0,2.4937864375,1.7474885625,1.9917606366527696,1.5394280798391344,-0.6005873458642114,-0.40968563403922187,0.40397198380846305,0.5065908582277417,1.2638816095551813
Encode-Decode_Experiment-13-1,2409918,encoding,-1.778182,0.142857,0.505714,0.204061,7,1,False,0.100713,0.241141,2,7,10,9,0.9,0.217613,1.0,5887.0,4.0,4.0,Where are the elephants in the scene?,0.0,6895.0,4.0,2.0,What is the elephant on the right (from your perspective) doing with its trunk?,36.0,1.0,,,,,0.5,0.16666666666666666,0.7,8.0,1.0,7.0,2.0625840625,-3.8407660625,-2.0881495539311543,-3.383474576936287,-4.60980618448093,-0.09161630551215891,-1.0604773537062517,-1.7242679669953416,0.805978523433576
Encode-Decode_Experiment-13-1,2385550,encoding,3.342677,0.464286,0.199464,0.079224,28,13,False,0.283041,0.31204,23,11,34,34,1.0,0.292423,1.0,4891.0,3.0,3.0,Which side of the frame is the boy on? (from your perspective),1.0,3565.0,4.0,4.0,Where are the tangerines in the scene?,37.0,2.0,,,,,0.7333333333333333,1.0,0.6666666666666666,11.0,3.0,8.0,1.8450925,1.4975845,1.382702521038964,1.319278237754904,-0.027841797490394334,1.0051744825121949,1.0514933393449388,0.5065908582277417,0.575019550459088
Encode-Decode_Experiment-13-1,2411268,encoding,0.019112,0.4,0.3966,0.1779,10,4,False,0.261656,0.271142,12,5,21,17,0.8095,0.283792,1.0,6461.0,4.0,4.0,Where is the fruit branch relative to the child?,1.0,3457.0,2.0,2.0,What is the child holding while picking fruit?,39.0,2.0,,,,,0.0,0.0,0.0,0.0,0.0,0.0,1.7027574375,-1.6836454375,-0.8699668995695827,-1.4831862815013672,-2.509739173776935,-1.0842119686741996,0.8037832055700953,0.5065908582277417,0.42387088301016324
Encode-Decode_Experiment-13-1,2374670,encoding,0.226189,0.473684,0.443421,0.133796,19,9,False,0.237692,0.276194,25,7,35,32,0.9143,0.259207,1.0,5496.0,3.0,3.0,Where is the man standing relative to the vehicle?,1.0,4751.0,1.0,1.0,What vehicle sprays water in the scene?,41.0,2.0,,,,,0.47368421052631576,0.5714285714285714,0.36363636363636365,9.0,4.0,4.0,1.2259038125,-0.9997148124999999,-0.7296127841509417,-0.8806861957321767,0.163073385300878,0.0652247771753235,0.5261995887461365,0.5065908582277417,-0.08251024839194197
Encode-Decode_Experiment-13-1,2344622,encoding,1.476616,0.304348,0.16613,0.093604,23,7,False,0.166774,0.290839,15,13,33,28,0.8485,0.25128,1.0,3713.0,4.0,4.0,What is the cat resting its head on?,1.0,4659.0,2.0,2.0,Where is the cat located?,44.0,2.0,,,,,1.0,1.0,1.0,14.0,5.0,9.0,0.402355875,1.074260125,0.11791048246285495,0.9463559516009697,-0.21875698028166665,-0.6564635613447012,-0.29526906998869473,0.5065908582277417,-0.9570535348252159
Encode-Decode_Experiment-14-1,2369373,encoding,1.436457,0.444444,0.269333,0.121905,18,8,False,0.201006,0.326698,14,8,25,22,0.88,0.222772,0.0,5927.0,2.0,3.0,What is the appearance of the oven?,1.0,4681.0,3.0,3.0,What tool is the chef using?,1.0,1.0,,,,,0.9333333333333333,1.0,0.9166666666666666,14.0,3.0,11.0,0.9177070625,0.5187499375000001,0.09069123106797679,0.456986235755289,-1.7460784426118452,-0.3109744631170299,0.10125247779622217,-1.7242679669953416,-0.40979101292309483
Encode-Decode_Experiment-14-1,2397102,encoding,3.841226,0.37931,0.122724,0.066798,29,11,False,0.11555,0.149194,21,15,37,36,0.973,0.126972,1.0,4256.0,1.0,1.0,What are the couple doing with the cake?,1.0,4480.0,3.0,3.0,What is the man holding besides the cake knife?,2.0,2.0,,,,,0.6666666666666666,0.4,0.631578947368421,14.0,2.0,12.0,2.3538833125,1.4873426875,1.7206125925961533,1.310255841792328,0.5449037508834227,0.7090409697456191,-0.8886150551410258,0.5065908582277417,1.1153154688989366
Encode-Decode_Experiment-14-1,2350974,encoding,2.712301,0.6,0.28845,0.114866,20,12,False,0.287804,0.272957,27,3,33,30,0.9091,0.279347,1.0,12366.0,4.0,4.0,Between which two objects is the child standing?,1.0,3297.0,1.0,1.0,What is the child up against?,3.0,2.0,,,,,0.0,0.0,0.0,0.0,0.0,0.0,2.4937864375,0.21851456250000023,0.9554418119252461,0.19249765668567223,-0.21875698028166665,0.008191656198057286,1.1066648786093571,0.5065908582277417,1.2638816095551813
Encode-Decode_Experiment-14-1,2362704,encoding,1.405212,0.173913,0.082522,0.065037,23,4,False,0.323391,0.188194,9,19,30,28,0.9333,0.248635,1.0,2038.0,2.0,2.0,How many bears are in the scene?,1.0,3418.0,4.0,4.0,What are the bears doing with the pumpkins?,4.0,2.0,,,,,0.6666666666666666,0.4,0.5714285714285714,6.0,2.0,4.0,0.2910766875,1.1141353125,0.06951377371512993,0.9814834967212261,-0.7915025286554837,0.273615026899951,1.5188818779381092,0.5065908582277417,-1.0752232999554632
Encode-Decode_Experiment-14-1,2347025,encoding,0.138287,0.684211,0.667737,0.119127,19,13,False,0.144578,0.062884,21,4,29,25,0.8621,0.129955,1.0,6163.0,1.0,1.0,Where is the baby in relation to the mother?,0.0,4779.0,3.0,2.0,Who is holding the umbrella in the scene?,5.0,1.0,,,,,0.5333333333333333,0.75,0.4166666666666667,8.0,3.0,5.0,0.81722825,-0.67894125,-0.7891916241647017,-0.5981047585889889,-0.9824177114467559,-0.5073000141733897,-0.5523733079716936,-1.7242679669953416,-0.5164916273007039
Encode-Decode_Experiment-14-1,2408717,encoding,1.009447,0.26087,0.178,0.082094,23,6,False,0.321244,0.267482,12,14,33,26,0.7879,0.264068,1.0,2100.0,2.0,2.0,How many surfers are in the scene?,1.0,4261.0,3.0,3.0,What are the surfers doing with the surfboards?,6.0,2.0,,,,,0.6,0.2,0.7777777777777778,9.0,1.0,7.0,0.3560793125,0.6533676875,-0.19873063048552245,0.575576050213525,-0.21875698028166665,-1.3211187788874597,1.4940124060085047,0.5065908582277417,-1.0061956129129106
Encode-Decode_Experiment-14-1,2383555,encoding,-0.84846,0.045455,0.107,0.072538,22,1,False,0.40903,0.212643,2,23,32,25,0.7812,0.213888,1.0,4001.0,2.0,2.0,Who is holding the child in the boat?,1.0,3810.0,4.0,4.0,What is the woman at the back doing in the boat?,7.0,2.0,,,,,0.0,0.0,0.0,0.0,0.0,0.0,0.117122375,-0.965582375,-1.45799599320133,-0.850617654026998,-0.40967216307293897,-1.3946037616850917,2.5108691655857056,0.5065908582277417,-1.2599491297654501
Encode-Decode_Experiment-14-1,2347400,encoding,2.033132,0.375,0.195417,0.088328,24,9,False,0.190789,0.219729,20,11,36,31,0.8611,0.205055,1.0,4992.0,3.0,3.0,What are the men doing with the wine?,1.0,2760.0,1.0,1.0,What are the men sitting on in the scene?,8.0,2.0,,,,,0.5,0.375,0.5833333333333334,10.0,3.0,7.0,0.8918465,1.1412855000000002,0.4951098377573614,1.0054011130692289,0.35398856809215035,-0.5182679220536331,-0.017094701852016312,0.5065908582277417,-0.4372529010390651
Encode-Decode_Experiment-14-1,2409918,encoding,1.515797,0.45,0.28035,0.111921,20,9,False,0.095327,0.10184,20,11,33,31,0.9394,0.104578,0.0,9799.0,1.0,2.0,What is the elephant on the right (from your perspective) doing with its trunk?,1.0,3591.0,4.0,4.0,Where are the elephants in the scene?,9.0,1.0,,,,,0.625,0.5,0.6,10.0,3.0,6.0,2.0625840625,-0.5467870625,0.14446685809229615,-0.4816851885434047,-0.21875698028166665,0.3405192649694365,-1.122865325673112,-1.7242679669953416,0.805978523433576
Encode-Decode_Experiment-14-1,2356991,encoding,0.473833,0.2,0.15932,0.085853,25,5,False,0.155579,0.201171,8,24,33,32,0.9697,0.189783,1.0,9904.0,2.0,2.0,What is the current action of the gloved player on the base?,1.0,6912.0,1.0,1.0,How is the player on the left (from your perspective) reaching the base?,10.0,2.0,,,,,0.4,0.2857142857142857,0.4,6.0,2.0,4.0,0.934694125,-0.46086112500000004,-0.5617628802082828,-0.4059898141572262,-0.21875698028166665,0.6728468737408158,-0.4249447748102696,0.5065908582277417,-0.3917520855102052
Encode-Decode_Experiment-14-1,2411268,encoding,2.938451,0.555556,0.221056,0.113835,18,10,False,0.157453,0.178419,16,11,33,27,0.8182,0.164798,1.0,7538.0,2.0,2.0,What is the child holding while picking fruit?,1.0,7174.0,4.0,4.0,Where is the fruit branch relative to the child?,11.0,2.0,,,,,0.6875,0.3333333333333333,0.9,11.0,2.0,9.0,1.7027574375,1.2356935625,1.1087233603440745,1.0885687088375176,-0.21875698028166665,-0.9887911701160804,-0.403237559907578,0.5065908582277417,0.42387088301016324
Encode-Decode_Experiment-14-1,2370664,encoding,0.09714,0.173913,0.166087,0.080565,23,4,False,0.23596,0.091393,12,23,37,35,0.9459,0.147265,1.0,3149.0,4.0,4.0,How many donuts are in the scene?,1.0,5105.0,1.0,1.0,Where are the people located in the scene?,12.0,2.0,,,,,0.4117647058823529,0.14285714285714285,0.4166666666666667,7.0,1.0,5.0,0.72850225,-0.63136225,-0.8170805291958294,-0.556190636698611,0.5449037508834227,0.41181066619101897,0.5061372108318029,0.5065908582277417,-0.6107116770377341
Encode-Decode_Experiment-14-1,2387122,encoding,0.509501,0.5,0.435455,0.126684,22,11,False,0.114624,0.070043,21,8,34,29,0.8529,0.109765,1.0,9959.0,1.0,1.0,What is the polar bear doing next to the enclosure edge?,1.0,3811.0,3.0,3.0,Where is the polar bear located in the scene?,13.0,2.0,,,,,0.6470588235294118,0.8,0.5833333333333334,11.0,4.0,7.0,0.8259124375,-0.3164114375,-0.5375875705951819,-0.2787386779647465,-0.027841797490394334,-0.60820476667163,-0.8993412456425691,0.5065908582277417,-0.5072697016174126
Encode-Decode_Experiment-14-1,2374670,encoding,1.280649,0.478261,0.332348,0.113937,23,11,False,0.249489,0.191983,18,9,32,27,0.8438,0.235517,1.0,11581.0,3.0,3.0,Where is the man standing relative to the vehicle?,1.0,5812.0,1.0,1.0,What vehicle sprays water in the scene?,15.0,2.0,,,,,0.3684210526315789,0.2857142857142857,0.36363636363636365,7.0,2.0,4.0,1.2259038125,0.054745187500000014,-0.014913418483386526,0.0482270846757307,-0.40967216307293897,-0.7080127283818463,0.6628484757296218,0.5065908582277417,-0.08251024839194197
Encode-Decode_Experiment-14-1,2344622,encoding,0.544709,0.25,0.19535,0.100329,20,5,False,0.154286,0.213588,10,15,31,25,0.8065,0.213326,1.0,4246.0,4.0,4.0,What is the cat resting its head on?,1.0,5657.0,2.0,2.0,Where is the cat located?,16.0,2.0,,,,,0.14285714285714285,0.2,0.1111111111111111,2.0,1.0,1.0,0.402355875,0.14235312500000002,-0.5137240430394441,0.1254041958159313,-0.6005873458642114,-1.1171156923149304,-0.43992205809158225,0.5065908582277417,-0.9570535348252159
Encode-Decode_Experiment-14-1,2356125,encoding,0.717822,0.296296,0.231481,0.090294,27,8,False,0.280217,0.247689,17,13,36,30,0.8333,0.255928,0.0,6148.0,4.0,2.0,How many uniformed staff are moving the luggage?,1.0,4147.0,1.0,1.0,Where is the luggage being moved to?,17.0,1.0,,,,,0.0,0.0,0.0,0.0,0.0,0.0,0.9290526875,-0.21123068750000007,-0.39639028804749804,-0.1860810185767527,0.35398856809215035,-0.8231757611244029,1.0187819333229535,-1.7242679669953416,-0.39774284945581695
Encode-Decode_Experiment-14-1,2360001,encoding,2.320179,0.269231,0.1145,0.066689,26,7,False,0.371708,0.245339,14,17,32,31,0.9688,0.318284,1.0,4558.0,4.0,4.0,Where are the men standing?,1.0,5194.0,4.0,4.0,What are the workers doing to the clock?,18.0,2.0,,,,,0.5333333333333333,1.0,0.36363636363636365,8.0,4.0,4.0,1.297036375,1.023142625,0.689666586061493,0.9013246326213488,-0.40967216307293897,0.6629757566485964,2.0785550382654003,0.5065908582277417,-0.006973048736007721
Encode-Decode_Experiment-14-1,2367132,encoding,2.619632,0.428571,0.179952,0.094906,21,9,False,0.109982,0.086747,22,8,33,30,0.9091,0.100056,1.0,7143.0,4.0,4.0,In which hand(s) are the men holding the controllers?,1.0,3069.0,2.0,2.0,How many men are playing in the scene?,19.0,2.0,,,,,0.6470588235294118,0.6,0.6666666666666666,11.0,3.0,8.0,3.4291268125,-0.8094948124999997,0.8926319608952908,-0.7131142781637603,-0.21875698028166665,0.008191656198057286,-0.9531111984591614,0.5065908582277417,2.2571396923443587
Encode-Decode_Experiment-14-1,2371471,encoding,-0.129305,0.333333,0.347542,0.109883,24,8,False,0.352704,0.488962,19,13,32,32,1.0,0.408059,1.0,9321.0,2.0,2.0,What stunt is one motorcyclist performing?,1.0,5747.0,3.0,3.0,What is nearest to the motorcyclists?,21.0,2.0,,,,,0.5,0.4,0.4666666666666667,10.0,2.0,7.0,1.7589963333333334,-1.8883013333333334,-0.9705620248036186,-1.6634753200171577,-0.40967216307293897,1.0051744825121949,1.8584248824432297,0.5065908582277417,0.4835921773609998
Encode-Decode_Experiment-14-1,2349475,encoding,-0.367195,0.068966,0.089241,0.055218,29,2,False,0.111236,0.069909,4,29,35,33,0.9429,0.077785,0.0,6205.0,2.0,1.0,What is the man doing to power the blender?,1.0,3986.0,3.0,3.0,Which part of the blender is the woman holding?,27.0,1.0,,,,,0.4,0.2,0.6,8.0,2.0,6.0,1.223761,-1.590956,-1.1318007935560177,-1.4015326868204037,0.163073385300878,0.37890694255028834,-0.9385856661816934,-1.7242679669953416,-0.0847857471220449
Encode-Decode_Experiment-14-1,2410309,encoding,0.556816,0.291667,0.238125,0.096157,24,7,False,0.138473,0.263642,14,16,32,30,0.9375,0.204776,1.0,3562.0,4.0,4.0,How many laptops or electronic devices are visible?,1.0,4495.0,2.0,2.0,What is the baby touching?,30.0,2.0,,,,,0.3333333333333333,0.14285714285714285,0.5,5.0,1.0,4.0,0.29547375,0.26134225,-0.505518074847064,0.23022616956231953,-0.40967216307293897,0.31968023999697365,-0.6230897151119985,0.5065908582277417,-1.0705539646146744
Encode-Decode_Experiment-14-1,150472,encoding,1.234119,0.363636,0.240136,0.100071,22,8,False,0.095566,0.081963,18,13,31,31,1.0,0.089862,1.0,2356.0,4.0,4.0,How many women are in the scene?,1.0,3474.0,2.0,2.0,Where is the pizza slice located?,31.0,2.0,,,,,0.375,0.25,0.5,6.0,1.0,5.0,0.6874455,0.5466734999999999,-0.04645085137274346,0.48158514708672884,-0.6005873458642114,1.0051744825121949,-1.1200969028546792,0.5065908582277417,-0.6543107238452179
Encode-Decode_Experiment-14-1,2386442,encoding,3.735814,0.692308,0.293846,0.10666,26,18,False,0.114149,0.106087,26,7,33,33,1.0,0.112439,1.0,5893.0,3.0,3.0,What is the person on the right wearing?,1.0,5111.0,1.0,1.0,Who is brushing their teeth in the scene?,32.0,2.0,,,,,0.0,0.0,0.0,0.0,0.0,0.0,2.8865960625000002,0.8492179374999997,1.649165700790159,0.7481078657363599,-0.21875698028166665,1.0051744825121949,-0.9048433412022161,0.5065908582277417,1.6810146078272123
Encode-Decode_Experiment-14-1,2394020,encoding,3.142319,0.636364,0.301136,0.106681,22,14,False,0.276657,0.296235,19,8,33,27,0.8182,0.293586,0.0,5297.0,4.0,1.0,Where is the scene taking place?,1.0,4901.0,2.0,2.0,What are the riders wearing on their heads?,33.0,1.0,,,,,1.0,0.6666666666666666,1.0,12.0,2.0,9.0,1.9072669375,1.2350520625,1.2469024570190674,1.0880035874774074,-0.21875698028166665,-0.9887911701160804,0.9775451750232834,-1.7242679669953416,0.641043924302402
Encode-Decode_Experiment-14-1,2385851,encoding,0.548615,0.136364,0.0995,0.067194,22,3,False,0.125317,0.240421,6,18,27,24,0.8889,0.226293,1.0,2432.0,2.0,2.0,What are the men doing with the suitcases?,1.0,9734.0,3.0,3.0,Where are the men?,35.0,2.0,,,,,0.9285714285714286,0.8,1.0,13.0,4.0,9.0,-0.23973612500000002,0.7883511249999999,-0.5110766067001828,0.6944880124774901,-1.3642480770293006,-0.2133600829828622,-0.7754803870756106,0.5065908582277417,-1.6389048543454157
Encode-Decode_Experiment-14-1,2385550,encoding,-0.836359,0.095238,0.175429,0.095881,21,2,False,0.368029,0.282615,4,22,27,26,0.963,0.288785,1.0,2935.0,4.0,4.0,Where are the tangerines in the scene?,1.0,6075.0,3.0,3.0,Which side of the frame is the boy on? (from your perspective),36.0,2.0,,,,,0.4666666666666667,0.6666666666666666,0.4166666666666667,7.0,2.0,5.0,1.8450925,-2.6814515,-1.4497940917314374,-2.362190987917706,-1.3642480770293006,0.5993618909431836,2.035939860236051,0.5065908582277417,0.575019550459088
Encode-Decode_Experiment-14-1,2345035,encoding,-0.717731,0.1,0.1709,0.098784,20,2,False,0.109165,0.162186,5,19,33,24,0.7273,0.143989,0.0,7745.0,4.0,3.0,What are the people doing with the football?,1.0,5836.0,2.0,2.0,Who runs toward the football in the scene?,44.0,1.0,,,,,0.47619047619047616,0.2,0.5333333333333333,10.0,1.0,8.0,0.058984562500000004,-0.7767155625,-1.3693895658599857,-0.6842378099745349,-0.21875698028166665,-1.9857739964302192,-0.9625748028217542,-1.7242679669953416,-1.3216869246097138
Encode-Decode_Experiment-14-1,2379478,encoding,2.698042,0.521739,0.234739,0.106373,23,12,False,0.344475,0.329327,20,8,33,28,0.8485,0.350471,0.0,3323.0,3.0,4.0,What is the position of the babies?,1.0,1994.0,2.0,2.0,How many babies are visible in the scene?,45.0,1.0,,,,,0.6923076923076923,0.8,0.5,9.0,4.0,5.0,2.2224776875,0.4755643125,0.9457772459340718,0.4189424023379798,-0.21875698028166665,-0.6564635613447012,1.7631054206319976,-1.7242679669953416,0.9757730064502123
Encode-Decode_Experiment-14-1,2412687,encoding,-0.388971,0.375,0.430187,0.141881,16,6,False,0.136834,0.129977,12,11,28,23,0.8214,0.129204,1.0,2710.0,4.0,4.0,What is the dog biting onto in the scene?,1.0,7457.0,3.0,3.0,What is the human's body position?,46.0,2.0,,,,,0.0,0.0,0.0,0.0,0.0,0.0,1.4683525,-1.8573235,-1.1465602850367536,-1.6361857871931567,-1.1733328942380283,-0.9536938648993013,-0.6420748406325489,0.5065908582277417,0.17495123296558238
Encode-Decode_Experiment-14-1,2348899,encoding,4.824092,0.730769,0.279808,0.093481,26,19,False,0.204805,0.124355,31,1,32,32,1.0,0.202291,1.0,4351.0,1.0,1.0,Where is the woman located relative to the man? (from your perspective),1.0,4085.0,4.0,4.0,What is the woman doing?,58.0,2.0,,,,,0.5652173913043478,0.3333333333333333,0.6470588235294118,13.0,2.0,11.0,3.2167180625,1.6073739375000002,2.386786469970551,1.415995862455949,-0.40967216307293897,1.0051744825121949,0.14525765891432507,0.5065908582277417,2.031578267400369
Encode-Decode_Experiment-15-1,2347025,encoding,-0.104589,0.785714,0.798929,0.126345,14,11,False,0.067175,0.083575,42,2,49,44,0.898,0.079173,1.0,6200.0,2.0,2.0,Who is holding the umbrella in the scene?,1.0,2622.0,1.0,1.0,Where is the baby in relation to the mother?,1.0,2.0,,,,,0.6,0.5,0.5833333333333334,9.0,2.0,7.0,0.81722825,-0.92181725,-0.953809839304084,-0.8120633173701195,2.8358859443786906,-0.11355212127264601,-1.4489600502945479,0.5065908582277417,-0.5164916273007039
Encode-Decode_Experiment-15-1,2374670,encoding,0.823044,0.416667,0.323792,0.112843,24,10,False,0.230862,0.247911,25,9,35,34,0.9714,0.242316,1.0,7792.0,1.0,1.0,What vehicle sprays water in the scene?,0.0,4486.0,2.0,3.0,Where is the man standing relative to the vehicle?,2.0,1.0,,,,,0.42105263157894735,0.42857142857142855,0.36363636363636365,8.0,3.0,4.0,1.2259038125,-0.4028598124999999,-0.3250721757869367,-0.35489428709850485,0.163073385300878,0.6914923171372301,0.4470852462779496,-1.7242679669953416,-0.08251024839194197
Encode-Decode_Experiment-15-1,2369373,encoding,1.50858,0.4375,0.250875,0.123709,16,7,False,0.185941,0.287374,21,10,37,31,0.8378,0.191001,1.0,4360.0,3.0,3.0,What tool is the chef using?,1.0,3235.0,3.0,3.0,What is the appearance of the oven?,3.0,2.0,,,,,0.6666666666666666,0.6666666666666666,0.6666666666666666,10.0,2.0,8.0,0.9177070625,0.5908729375,0.13957526872710185,0.5205220858803383,0.5449037508834227,-0.7738201756633075,-0.07325082663763428,0.5065908582277417,-0.40979101292309483
Encode-Decode_Experiment-15-1,2371471,encoding,0.760647,0.45,0.35825,0.120621,20,9,False,0.214091,0.578966,21,17,38,38,1.0,0.377325,1.0,5313.0,2.0,2.0,What stunt is one motorcyclist performing?,1.0,8140.0,3.0,3.0,What is nearest to the motorcyclists?,4.0,2.0,,,,,0.5,0.4,0.4666666666666667,10.0,2.0,7.0,1.7589963333333334,-0.9983493333333334,-0.36736405629407637,-0.8794832940270035,0.735818933674695,1.0051744825121949,0.2528207312656556,0.5065908582277417,0.4835921773609998
Encode-Decode_Experiment-15-1,2349475,encoding,0.74524,0.285714,0.209952,0.101661,21,6,False,0.088462,0.044051,16,19,37,35,0.9459,0.068249,1.0,4076.0,3.0,3.0,Which part of the blender is the woman holding?,1.0,4491.0,1.0,1.0,What is the man doing to power the blender?,5.0,2.0,,,,,0.7,0.7,0.7,14.0,7.0,7.0,1.223761,-0.4785210000000001,-0.3778067218544959,-0.42154705901985123,0.5449037508834227,0.41181066619101897,-1.2023850857088523,0.5065908582277417,-0.0847857471220449
Encode-Decode_Experiment-15-1,2356125,encoding,0.744871,0.28,0.216,0.085921,25,7,False,0.289355,0.192174,15,25,45,40,0.8889,0.230506,1.0,7624.0,1.0,1.0,Where is the luggage being moved to?,1.0,5413.0,2.0,2.0,How many uniformed staff are moving the luggage?,6.0,2.0,,,,,0.5,0.42857142857142855,0.5384615384615384,10.0,3.0,7.0,0.9290526875,-0.18418168750000008,-0.3780568252874676,-0.16225254208475348,2.0722252132136014,-0.2133600829828622,1.1246306685314884,0.5065908582277417,-0.39774284945581695
Encode-Decode_Experiment-15-1,2386442,encoding,5.329251,0.708333,0.202167,0.094979,24,17,False,0.119667,0.143727,49,4,53,53,1.0,0.121483,1.0,4191.0,3.0,3.0,What is the person on the right wearing?,1.0,2598.0,1.0,1.0,Who is brushing their teeth in the scene?,7.0,2.0,,,,,0.47058823529411764,0.3333333333333333,0.46153846153846156,8.0,2.0,6.0,2.8865960625000002,2.4426549375,2.7291767141346317,2.1518261583158176,3.5995466755437797,1.0051744825121949,-0.8409263658377276,0.5065908582277417,1.6810146078272123
Encode-Decode_Experiment-15-1,2385550,encoding,-0.241808,0.076923,0.098077,0.087482,13,1,False,0.219235,0.15114,7,30,38,37,0.9737,0.176826,1.0,3406.0,4.0,4.0,Where are the tangerines in the scene?,1.0,3460.0,3.0,3.0,Which side of the frame is the boy on? (from your perspective),9.0,2.0,,,,,0.8666666666666667,0.6666666666666666,0.9166666666666666,13.0,2.0,11.0,1.8450925,-2.0869005,-1.0468151048025727,-1.8384287591183186,0.735818933674695,0.7167185052617899,0.31240553033686436,0.5065908582277417,0.575019550459088
Encode-Decode_Experiment-15-1,2362704,encoding,-0.729997,0.190476,0.26981,0.108676,21,4,False,0.178577,0.16486,13,21,34,34,1.0,0.170104,1.0,1438.0,2.0,2.0,How many bears are in the scene?,1.0,2827.0,4.0,4.0,What are the bears doing with the pumpkins?,11.0,2.0,,,,,0.4444444444444444,0.2,0.42857142857142855,4.0,1.0,3.0,0.2910766875,-1.0210736875,-1.3777033021982803,-0.899502028141251,-0.027841797490394334,1.0051744825121949,-0.15855068285077176,0.5065908582277417,-1.0752232999554632
Encode-Decode_Experiment-15-1,2410309,encoding,0.413012,0.25,0.201,0.11864,16,4,False,0.325309,0.279604,6,23,30,29,0.9667,0.288897,1.0,4005.0,2.0,2.0,What is the baby touching?,1.0,3441.0,4.0,4.0,How many laptops or electronic devices are visible?,12.0,2.0,,,,,0.6666666666666666,0.2857142857142857,1.0,10.0,2.0,8.0,0.29547375,0.11753825000000001,-0.6029865682754133,0.10354384365543001,-0.7915025286554837,0.6399431501000851,1.5410987606400104,0.5065908582277417,-1.0705539646146744
Encode-Decode_Experiment-15-1,2412687,encoding,2.720342,0.647059,0.313882,0.122476,17,11,False,0.14633,0.40504,30,2,35,32,0.9143,0.15471,1.0,3573.0,4.0,4.0,What is the dog biting onto in the scene?,1.0,4651.0,3.0,3.0,What is the human's body position?,13.0,2.0,,,,,0.6,1.0,0.5555555555555556,9.0,4.0,5.0,1.4683525,1.2519895,0.960891897845369,1.1029244101068376,0.163073385300878,0.0652247771753235,-0.5320792628759012,0.5065908582277417,0.17495123296558238
Encode-Decode_Experiment-15-1,2409918,encoding,2.357866,0.521739,0.277652,0.10352,23,12,False,0.12614,0.121713,23,9,39,32,0.8205,0.14756,0.0,6143.0,4.0,2.0,What is the elephant on the right (from your perspective) doing with its trunk?,1.0,5553.0,4.0,4.0,Where are the elephants in the scene?,14.0,1.0,,,,,0.6875,0.5,0.8,11.0,3.0,8.0,2.0625840625,0.2952819375,0.7152103477915853,0.2601249105782369,0.9267341164659673,-0.9635649819915206,-0.7659472825585804,-1.7242679669953416,0.805978523433576
Encode-Decode_Experiment-15-1,2344622,encoding,1.846181,0.388889,0.193167,0.106015,18,7,False,0.164272,0.119036,15,16,35,31,0.8857,0.154646,1.0,5472.0,2.0,2.0,Where is the cat located?,1.0,3186.0,4.0,4.0,What is the cat resting its head on?,15.0,2.0,,,,,0.7142857142857143,0.8,0.6666666666666666,10.0,4.0,6.0,0.402355875,1.443825125,0.3683968651354363,1.2719195922074873,0.163073385300878,-0.24845738819964133,-0.3242506343891932,0.5065908582277417,-0.9570535348252159
Encode-Decode_Experiment-15-1,150472,encoding,1.306447,0.423077,0.290346,0.101597,26,11,False,0.069874,0.099435,27,12,39,39,1.0,0.07897,1.0,4101.0,2.0,2.0,Where is the pizza slice located?,1.0,2987.0,4.0,4.0,How many women are in the scene?,16.0,2.0,,,,,0.5,0.25,0.7,8.0,1.0,7.0,0.6874455,0.6190014999999999,0.002572132638032569,0.5453015893845335,0.9267341164659673,1.0051744825121949,-1.4176965641566799,0.5065908582277417,-0.6543107238452179
Encode-Decode_Experiment-15-1,2379478,encoding,2.059029,0.5,0.25655,0.118235,20,10,False,0.367436,0.24903,29,8,43,37,0.8605,0.325753,1.0,3396.0,4.0,4.0,What is the position of the babies?,1.0,2596.0,2.0,2.0,How many babies are visible in the scene?,18.0,2.0,,,,,0.0,0.0,0.0,0.0,0.0,0.0,2.2224776875,-0.16344868749999986,0.5126624897998218,-0.14398806638847544,1.6903948476310566,-0.5248486667817786,2.0290709283057966,0.5065908582277417,0.9757730064502123
Encode-Decode_Experiment-15-1,2385851,encoding,-1.46333,0.05,0.19455,0.098782,20,1,False,0.317342,0.201548,3,28,37,31,0.8378,0.242951,1.0,5086.0,3.0,3.0,Where are the men?,1.0,2998.0,2.0,2.0,What are the men doing with the suitcases?,21.0,2.0,,,,,0.7857142857142857,0.8,0.7777777777777778,11.0,4.0,7.0,-0.23973612500000002,-1.223593875,-1.8747469358335866,-1.0779096412507567,0.5449037508834227,-0.7738201756633075,1.4488141389058893,0.5065908582277417,-1.6389048543454157
Encode-Decode_Experiment-15-1,2383555,encoding,1.462279,0.1,0.0349,0.04452,20,2,False,0.168497,0.179873,10,35,49,45,0.9184,0.184244,1.0,3426.0,2.0,2.0,Who is holding the child in the boat?,1.0,5662.0,4.0,4.0,What is the woman at the back doing in the boat?,22.0,2.0,,,,,0.6111111111111112,0.5,0.7272727272727273,11.0,3.0,8.0,0.117122375,1.345156625,0.10819304907934527,1.1849988175854744,2.8358859443786906,0.11019319948432195,-0.2753109423060173,0.5065908582277417,-1.2599491297654501
Encode-Decode_Experiment-15-1,2397102,encoding,2.239179,0.6,0.33215,0.11962,20,12,False,0.108911,0.125918,31,4,35,35,1.0,0.110855,1.0,2329.0,1.0,1.0,What are the couple doing with the cake?,1.0,3435.0,3.0,3.0,What is the man holding besides the cake knife?,23.0,2.0,,,,,0.7619047619047619,1.0,0.5789473684210527,16.0,5.0,11.0,2.3538833125,-0.1147043124999998,0.6347658324823416,-0.10104732204285469,0.163073385300878,1.0051744825121949,-0.9655169760262813,0.5065908582277417,1.1153154688989366
Encode-Decode_Experiment-15-1,2348899,encoding,2.156522,0.5,0.255389,0.113428,18,9,False,0.190768,0.093918,20,14,34,34,1.0,0.150888,1.0,4196.0,1.0,1.0,Where is the woman located relative to the man? (from your perspective),1.0,2770.0,4.0,4.0,What is the woman doing?,25.0,2.0,,,,,0.6521739130434783,0.6666666666666666,0.6470588235294118,15.0,4.0,11.0,3.2167180625,-1.0601960625000002,0.5787419857096018,-0.9339663925539348,-0.027841797490394334,1.0051744825121949,-0.017337952392547994,0.5065908582277417,2.031578267400369
Encode-Decode_Experiment-15-1,2360001,encoding,0.797404,0.217391,0.152087,0.081896,23,5,False,0.413988,0.240979,12,21,33,33,1.0,0.303891,0.0,3772.0,1.0,4.0,What are the workers doing to the clock?,0.0,4063.0,1.0,4.0,Where are the men standing?,26.0,0.0,,,,,0.8666666666666667,1.0,0.8181818181818182,13.0,4.0,9.0,1.297036375,-0.499632375,-0.3424506365495224,-0.44014485941547693,-0.21875698028166665,1.0051744825121949,2.5682994598693476,-3.955126792218425,-0.006973048736007721
Encode-Decode_Experiment-15-1,2370664,encoding,1.268825,0.238095,0.139095,0.078025,21,5,False,0.199412,0.103866,10,31,41,41,1.0,0.12717,1.0,2589.0,1.0,1.0,Where are the people located in the scene?,1.0,2830.0,4.0,4.0,How many donuts are in the scene?,27.0,2.0,,,,,0.7647058823529411,0.7142857142857143,0.6666666666666666,13.0,5.0,8.0,0.72850225,0.5403227500000001,-0.022927572931780067,0.475990533715382,1.308564482048512,1.0051744825121949,0.08278860343395436,0.5065908582277417,-0.6107116770377341
Encode-Decode_Experiment-15-1,2350974,encoding,1.187243,0.409091,0.278227,0.110225,22,9,False,0.187802,0.212155,21,20,45,41,0.9111,0.192998,1.0,4588.0,4.0,4.0,Between which two objects is the child standing?,1.0,2251.0,1.0,1.0,What is the child up against?,28.0,2.0,,,,,0.75,0.5,0.7,9.0,2.0,7.0,2.4937864375,-1.3065434374999998,-0.07822279859220391,-1.1509830154994487,2.0722252132136014,0.03012747195854439,-0.051694195402891024,0.5065908582277417,1.2638816095551813
Encode-Decode_Experiment-15-1,2356991,encoding,-0.764326,0.173913,0.254956,0.106033,23,4,False,0.077566,0.240647,14,28,42,42,1.0,0.186287,1.0,5553.0,2.0,2.0,What is the current action of the gloved player on the base?,1.0,12279.0,1.0,1.0,How is the player on the left (from your perspective) reaching the base?,30.0,2.0,,,,,0.5333333333333333,0.5714285714285714,0.4,8.0,4.0,4.0,0.934694125,-1.699020125,-1.4009710549096221,-1.4967304191650732,1.4994796648397843,1.0051744825121949,-1.3285973661676176,0.5065908582277417,-0.3917520855102052
Encode-Decode_Experiment-15-1,2387122,encoding,1.388081,0.555556,0.360833,0.140282,18,10,False,0.127178,0.047365,25,3,31,28,0.9032,0.128996,1.0,2723.0,3.0,3.0,Where is the polar bear located in the scene?,1.0,9753.0,1.0,1.0,What is the polar bear doing next to the enclosure edge?,33.0,2.0,,,,,0.6470588235294118,0.4,0.75,11.0,2.0,9.0,0.8259124375,0.5621685624999999,0.05790260322668001,0.4952353275933394,-0.6005873458642114,-0.05651900029537978,-0.7539237558408673,0.5065908582277417,-0.5072697016174126
